{
  "resourceType" : "Bundle",
  "id" : "ClaimResponseBundle-predetermination-example-01",
  "meta" : {
    "profile" : ["https://nrces.in/ndhm/fhir/r4/StructureDefinition/ClaimResponseBundle"],
    "security" : [{
      "system" : "http://terminology.hl7.org/CodeSystem/v3-Confidentiality",
      "code" : "V",
      "display" : "very restricted"
    }]
  },
  "identifier" : {
    "value" : "bc3c6c57-2053-4d0e-ac40-139ccccff645"
  },
  "type" : "collection",
  "timestamp" : "2025-03-07T15:32:26.605+05:30",
  "entry" : [{
    "fullUrl" : "urn:uuid:da33ae8f-7d0c-4729-b909-0fe991bd4c08",
    "resource" : {
      "resourceType" : "ClaimResponse",
      "id" : "da33ae8f-7d0c-4729-b909-0fe991bd4c08",
      "meta" : {
        "profile" : ["https://nrces.in/ndhm/fhir/r4/StructureDefinition/ClaimResponse"]
      },
      "text" : {
        "status" : "generated",
        "div" : "<div xmlns=\"http://www.w3.org/1999/xhtml\"><a name=\"ClaimResponse_da33ae8f-7d0c-4729-b909-0fe991bd4c08\"> </a><p class=\"res-header-id\"><b>Generated Narrative: ClaimResponse da33ae8f-7d0c-4729-b909-0fe991bd4c08</b></p><a name=\"da33ae8f-7d0c-4729-b909-0fe991bd4c08\"> </a><a name=\"hcda33ae8f-7d0c-4729-b909-0fe991bd4c08\"> </a><a name=\"da33ae8f-7d0c-4729-b909-0fe991bd4c08-hi-IN\"> </a><p><b>status</b>: Active</p><p><b>type</b>: <span title=\"Codes:{http://snomed.info/sct 737481003}\">Inpatient care management (procedure)</span></p><p><b>use</b>: Predetermination</p><p><b>patient</b>: <a href=\"Bundle-ClaimResponseBundle-predetermination-example-01.html#urn-uuid-1761e489-1265-4574-a7ee-14379479c2b4\">Patient</a></p><p><b>created</b>: 2025-03-07 15:32:26+0530</p><p><b>insurer</b>: <a href=\"Bundle-ClaimResponseBundle-predetermination-example-01.html#urn-uuid-c3b14300-76b8-461f-a0e3-f8f642535a06\">Organization</a></p><p><b>requestor</b>: <a href=\"Bundle-ClaimResponseBundle-predetermination-example-01.html#urn-uuid-3edacfa8-10eb-413c-80b8-a21c2253f0e5\">Organization</a></p><p><b>request</b>: <a href=\"Bundle-ClaimResponseBundle-predetermination-example-01.html#urn-uuid-d683b789-b008-449a-8cf4-559effa3285e\">Bundle: identifier = bc3c6c57-2053-4d0e-ac40-139ccccff645; type = collection; timestamp = 2025-03-07 15:32:26+0530</a></p><p><b>outcome</b>: Processing Complete</p><blockquote><p><b>item</b></p><p><b>itemSequence</b>: 1</p><blockquote><p><b>adjudication</b></p><p><b>category</b>: <span title=\"Codes:{http://terminology.hl7.org/CodeSystem/adjudication submitted}\">Submitted Amount</span></p><h3>Amounts</h3><table class=\"grid\"><tr><td style=\"display: none\">-</td><td><b>Value</b></td><td><b>Currency</b></td></tr><tr><td style=\"display: none\">*</td><td>10000</td><td>Indian rupee</td></tr></table></blockquote><blockquote><p><b>adjudication</b></p><p><b>category</b>: <span title=\"Codes:{http://terminology.hl7.org/CodeSystem/adjudication eligpercent}\">Eligible %</span></p><p><b>reason</b>: <span title=\"Codes:{https://nrces.in/ndhm/fhir/r4/CodeSystem/ndhm-adjudication-reason covered}\">Product or Service requested is covered by the policy.</span></p><h3>Amounts</h3><table class=\"grid\"><tr><td style=\"display: none\">-</td><td><b>Value</b></td><td><b>Currency</b></td></tr><tr><td style=\"display: none\">*</td><td>10000</td><td>Indian rupee</td></tr></table></blockquote></blockquote><blockquote><p><b>item</b></p><p><b>itemSequence</b>: 2</p><blockquote><p><b>adjudication</b></p><p><b>category</b>: <span title=\"Codes:{http://terminology.hl7.org/CodeSystem/adjudication submitted}\">Submitted Amount</span></p><h3>Amounts</h3><table class=\"grid\"><tr><td style=\"display: none\">-</td><td><b>Value</b></td><td><b>Currency</b></td></tr><tr><td style=\"display: none\">*</td><td>40000</td><td>Indian rupee</td></tr></table></blockquote><blockquote><p><b>adjudication</b></p><p><b>category</b>: <span title=\"Codes:{http://terminology.hl7.org/CodeSystem/adjudication eligpercent}\">Eligible %</span></p><p><b>reason</b>: <span title=\"Codes:{https://nrces.in/ndhm/fhir/r4/CodeSystem/ndhm-adjudication-reason covered}\">Product or Service requested is covered by the policy.</span></p><h3>Amounts</h3><table class=\"grid\"><tr><td style=\"display: none\">-</td><td><b>Value</b></td><td><b>Currency</b></td></tr><tr><td style=\"display: none\">*</td><td>40000</td><td>Indian rupee</td></tr></table></blockquote></blockquote><blockquote><p><b>item</b></p><p><b>itemSequence</b>: 3</p><blockquote><p><b>adjudication</b></p><p><b>category</b>: <span title=\"Codes:{http://terminology.hl7.org/CodeSystem/adjudication submitted}\">Submitted Amount</span></p><h3>Amounts</h3><table class=\"grid\"><tr><td style=\"display: none\">-</td><td><b>Value</b></td><td><b>Currency</b></td></tr><tr><td style=\"display: none\">*</td><td>20000</td><td>Indian rupee</td></tr></table></blockquote><blockquote><p><b>adjudication</b></p><p><b>category</b>: <span title=\"Codes:{http://terminology.hl7.org/CodeSystem/adjudication eligpercent}\">Eligible %</span></p><p><b>reason</b>: <span title=\"Codes:{https://nrces.in/ndhm/fhir/r4/CodeSystem/ndhm-adjudication-reason covered}\">Product or Service requested is covered by the policy.</span></p><h3>Amounts</h3><table class=\"grid\"><tr><td style=\"display: none\">-</td><td><b>Value</b></td><td><b>Currency</b></td></tr><tr><td style=\"display: none\">*</td><td>20000</td><td>Indian rupee</td></tr></table></blockquote></blockquote><blockquote><p><b>total</b></p><p><b>category</b>: <span title=\"Codes:{http://terminology.hl7.org/CodeSystem/adjudication submitted}\">Submitted Amount</span></p><h3>Amounts</h3><table class=\"grid\"><tr><td style=\"display: none\">-</td><td><b>Value</b></td><td><b>Currency</b></td></tr><tr><td style=\"display: none\">*</td><td>70000</td><td>Indian rupee</td></tr></table></blockquote><blockquote><p><b>total</b></p><p><b>category</b>: <span title=\"Codes:{http://terminology.hl7.org/CodeSystem/adjudication eligpercent}\">Eligible %</span></p><h3>Amounts</h3><table class=\"grid\"><tr><td style=\"display: none\">-</td><td><b>Value</b></td><td><b>Currency</b></td></tr><tr><td style=\"display: none\">*</td><td>70000</td><td>Indian rupee</td></tr></table></blockquote><h3>Insurances</h3><table class=\"grid\"><tr><td style=\"display: none\">-</td><td><b>Sequence</b></td><td><b>Focal</b></td><td><b>Coverage</b></td></tr><tr><td style=\"display: none\">*</td><td>1</td><td>true</td><td><a href=\"Bundle-ClaimResponseBundle-predetermination-example-01.html#urn-uuid-4f95b4e1-9f61-468b-802a-ece8094370d9\">Coverage</a></td></tr></table></div>"
      },
      "status" : "active",
      "type" : {
        "coding" : [{
          "system" : "http://snomed.info/sct",
          "code" : "737481003",
          "display" : "Inpatient care management (procedure)"
        }]
      },
      "use" : "predetermination",
      "patient" : {
        "reference" : "urn:uuid:1761e489-1265-4574-a7ee-14379479c2b4",
        "display" : "Patient"
      },
      "created" : "2025-03-07T15:32:26.605+05:30",
      "insurer" : {
        "reference" : "urn:uuid:c3b14300-76b8-461f-a0e3-f8f642535a06",
        "display" : "Organization"
      },
      "requestor" : {
        "reference" : "urn:uuid:3edacfa8-10eb-413c-80b8-a21c2253f0e5",
        "display" : "Organization"
      },
      "request" : {
        "reference" : "urn:uuid:d683b789-b008-449a-8cf4-559effa3285e"
      },
      "outcome" : "complete",
      "item" : [{
        "itemSequence" : 1,
        "adjudication" : [{
          "category" : {
            "coding" : [{
              "system" : "http://terminology.hl7.org/CodeSystem/adjudication",
              "code" : "submitted",
              "display" : "Submitted Amount"
            }]
          },
          "amount" : {
            "value" : 10000,
            "currency" : "INR"
          }
        },
        {
          "category" : {
            "coding" : [{
              "system" : "http://terminology.hl7.org/CodeSystem/adjudication",
              "code" : "eligpercent",
              "display" : "Eligible %"
            }]
          },
          "reason" : {
            "coding" : [{
              "system" : "https://nrces.in/ndhm/fhir/r4/CodeSystem/ndhm-adjudication-reason",
              "code" : "covered",
              "display" : "Product or Service requested is covered by the policy."
            }]
          },
          "amount" : {
            "value" : 10000,
            "currency" : "INR"
          }
        }]
      },
      {
        "itemSequence" : 2,
        "adjudication" : [{
          "category" : {
            "coding" : [{
              "system" : "http://terminology.hl7.org/CodeSystem/adjudication",
              "code" : "submitted",
              "display" : "Submitted Amount"
            }]
          },
          "amount" : {
            "value" : 40000,
            "currency" : "INR"
          }
        },
        {
          "category" : {
            "coding" : [{
              "system" : "http://terminology.hl7.org/CodeSystem/adjudication",
              "code" : "eligpercent",
              "display" : "Eligible %"
            }]
          },
          "reason" : {
            "coding" : [{
              "system" : "https://nrces.in/ndhm/fhir/r4/CodeSystem/ndhm-adjudication-reason",
              "code" : "covered",
              "display" : "Product or Service requested is covered by the policy."
            }]
          },
          "amount" : {
            "value" : 40000,
            "currency" : "INR"
          }
        }]
      },
      {
        "itemSequence" : 3,
        "adjudication" : [{
          "category" : {
            "coding" : [{
              "system" : "http://terminology.hl7.org/CodeSystem/adjudication",
              "code" : "submitted",
              "display" : "Submitted Amount"
            }]
          },
          "amount" : {
            "value" : 20000,
            "currency" : "INR"
          }
        },
        {
          "category" : {
            "coding" : [{
              "system" : "http://terminology.hl7.org/CodeSystem/adjudication",
              "code" : "eligpercent",
              "display" : "Eligible %"
            }]
          },
          "reason" : {
            "coding" : [{
              "system" : "https://nrces.in/ndhm/fhir/r4/CodeSystem/ndhm-adjudication-reason",
              "code" : "covered",
              "display" : "Product or Service requested is covered by the policy."
            }]
          },
          "amount" : {
            "value" : 20000,
            "currency" : "INR"
          }
        }]
      }],
      "total" : [{
        "category" : {
          "coding" : [{
            "system" : "http://terminology.hl7.org/CodeSystem/adjudication",
            "code" : "submitted",
            "display" : "Submitted Amount"
          }]
        },
        "amount" : {
          "value" : 70000,
          "currency" : "INR"
        }
      },
      {
        "category" : {
          "coding" : [{
            "system" : "http://terminology.hl7.org/CodeSystem/adjudication",
            "code" : "eligpercent",
            "display" : "Eligible %"
          }]
        },
        "amount" : {
          "value" : 70000,
          "currency" : "INR"
        }
      }],
      "insurance" : [{
        "sequence" : 1,
        "focal" : true,
        "coverage" : {
          "reference" : "urn:uuid:4f95b4e1-9f61-468b-802a-ece8094370d9",
          "display" : "Coverage"
        }
      }]
    }
  },
  {
    "fullUrl" : "urn:uuid:d683b789-b008-449a-8cf4-559effa3285e",
    "resource" : {
      "resourceType" : "Claim",
      "id" : "d683b789-b008-449a-8cf4-559effa3285e",
      "meta" : {
        "profile" : ["https://nrces.in/ndhm/fhir/r4/StructureDefinition/Claim"]
      },
      "text" : {
        "status" : "generated",
        "div" : "<div xmlns=\"http://www.w3.org/1999/xhtml\"><a name=\"Claim_d683b789-b008-449a-8cf4-559effa3285e\"> </a><p class=\"res-header-id\"><b>Generated Narrative: Claim d683b789-b008-449a-8cf4-559effa3285e</b></p><a name=\"d683b789-b008-449a-8cf4-559effa3285e\"> </a><a name=\"hcd683b789-b008-449a-8cf4-559effa3285e\"> </a><a name=\"d683b789-b008-449a-8cf4-559effa3285e-hi-IN\"> </a><p><b>identifier</b>: 7612345, 98765432</p><p><b>status</b>: Active</p><p><b>type</b>: <span title=\"Codes:{http://snomed.info/sct 737481003}\">Inpatient care management (procedure)</span></p><p><b>use</b>: Predetermination</p><p><b>patient</b>: <a href=\"Bundle-ClaimResponseBundle-predetermination-example-01.html#urn-uuid-1761e489-1265-4574-a7ee-14379479c2b4\">Patient</a></p><p><b>billablePeriod</b>: 2025-03-07 11:01:00+0500 --&gt; 2025-04-07 11:01:00+0500</p><p><b>created</b>: 2025-03-07 11:01:00+0500</p><p><b>insurer</b>: <a href=\"Bundle-ClaimResponseBundle-predetermination-example-01.html#urn-uuid-c3b14300-76b8-461f-a0e3-f8f642535a06\">Organization</a></p><p><b>provider</b>: <a href=\"Bundle-ClaimResponseBundle-predetermination-example-01.html#urn-uuid-3edacfa8-10eb-413c-80b8-a21c2253f0e5\">Organization</a></p><p><b>priority</b>: <span title=\"Codes:{http://terminology.hl7.org/CodeSystem/processpriority normal}\">Normal</span></p><h3>CareTeams</h3><table class=\"grid\"><tr><td style=\"display: none\">-</td><td><b>Sequence</b></td><td><b>Provider</b></td><td><b>Role</b></td><td><b>Qualification</b></td></tr><tr><td style=\"display: none\">*</td><td>1</td><td><a href=\"Bundle-ClaimResponseBundle-predetermination-example-01.html#urn-uuid-45abb9dc-8a64-4e82-ab69-6ee110bf4481\">Practitioner</a></td><td><span title=\"Codes:{http://snomed.info/sct 223366009}\">Healthcare professional (occupation)</span></td><td><span title=\"Codes:{http://snomed.info/sct 394658006}\">Clinical specialty (qualifier value)</span></td></tr></table><h3>Diagnoses</h3><table class=\"grid\"><tr><td style=\"display: none\">-</td><td><b>Sequence</b></td><td><b>Diagnosis[x]</b></td><td><b>Type</b></td></tr><tr><td style=\"display: none\">*</td><td>1</td><td><span title=\"Codes:{http://hl7.org/fhir/sid/icd-10 I46.9}\">Cardiac arrest, unspecified</span></td><td><span title=\"Codes:{http://snomed.info/sct 89100005}\">Final diagnosis (discharge) (contextual qualifier) (qualifier value)</span></td></tr></table><blockquote><p><b>procedure</b></p><p><b>sequence</b>: 1</p><p><b>procedure</b>: <span title=\"Codes:{http://snomed.info/sct 77343006}\">Angiography</span></p></blockquote><blockquote><p><b>procedure</b></p><p><b>sequence</b>: 2</p><p><b>procedure</b>: <span title=\"Codes:{http://snomed.info/sct 418285008}\">Angioplasty of blood vessel</span></p></blockquote><h3>Insurances</h3><table class=\"grid\"><tr><td style=\"display: none\">-</td><td><b>Sequence</b></td><td><b>Focal</b></td><td><b>Coverage</b></td></tr><tr><td style=\"display: none\">*</td><td>1</td><td>true</td><td><a href=\"Bundle-ClaimResponseBundle-predetermination-example-01.html#urn-uuid-4f95b4e1-9f61-468b-802a-ece8094370d9\">Coverage</a></td></tr></table><blockquote><p><b>item</b></p><p><b>sequence</b>: 1</p><p><b>careTeamSequence</b>: 1</p><p><b>productOrService</b>: <span title=\"Codes:{http://snomed.info/sct 77343006}\">Angiography</span></p><h3>UnitPrices</h3><table class=\"grid\"><tr><td style=\"display: none\">-</td><td><b>Value</b></td><td><b>Currency</b></td></tr><tr><td style=\"display: none\">*</td><td>10000</td><td>Indian rupee</td></tr></table><h3>Nets</h3><table class=\"grid\"><tr><td style=\"display: none\">-</td><td><b>Value</b></td><td><b>Currency</b></td></tr><tr><td style=\"display: none\">*</td><td>10000</td><td>Indian rupee</td></tr></table></blockquote><blockquote><p><b>item</b></p><p><b>sequence</b>: 2</p><p><b>careTeamSequence</b>: 1</p><p><b>productOrService</b>: <span title=\"Codes:{http://snomed.info/sct 418285008}\">Angioplasty of blood vessel</span></p><h3>UnitPrices</h3><table class=\"grid\"><tr><td style=\"display: none\">-</td><td><b>Value</b></td><td><b>Currency</b></td></tr><tr><td style=\"display: none\">*</td><td>40000</td><td>Indian rupee</td></tr></table><h3>Nets</h3><table class=\"grid\"><tr><td style=\"display: none\">-</td><td><b>Value</b></td><td><b>Currency</b></td></tr><tr><td style=\"display: none\">*</td><td>40000</td><td>Indian rupee</td></tr></table></blockquote><blockquote><p><b>item</b></p><p><b>sequence</b>: 3</p><p><b>careTeamSequence</b>: 1</p><p><b>productOrService</b>: <span title=\"Codes:{http://snomed.info/sct 309904001}\">Intensive care unit</span></p><h3>UnitPrices</h3><table class=\"grid\"><tr><td style=\"display: none\">-</td><td><b>Value</b></td><td><b>Currency</b></td></tr><tr><td style=\"display: none\">*</td><td>2000</td><td>Indian rupee</td></tr></table><h3>Nets</h3><table class=\"grid\"><tr><td style=\"display: none\">-</td><td><b>Value</b></td><td><b>Currency</b></td></tr><tr><td style=\"display: none\">*</td><td>20000</td><td>Indian rupee</td></tr></table></blockquote><h3>Totals</h3><table class=\"grid\"><tr><td style=\"display: none\">-</td><td><b>Value</b></td><td><b>Currency</b></td></tr><tr><td style=\"display: none\">*</td><td>70000</td><td>Indian rupee</td></tr></table></div>"
      },
      "identifier" : [{
        "value" : "7612345"
      },
      {
        "value" : "98765432"
      }],
      "status" : "active",
      "type" : {
        "coding" : [{
          "system" : "http://snomed.info/sct",
          "code" : "737481003",
          "display" : "Inpatient care management (procedure)"
        }]
      },
      "use" : "predetermination",
      "patient" : {
        "reference" : "urn:uuid:1761e489-1265-4574-a7ee-14379479c2b4",
        "display" : "Patient"
      },
      "billablePeriod" : {
        "start" : "2025-03-07T11:01:00+05:00",
        "end" : "2025-04-07T11:01:00+05:00"
      },
      "created" : "2025-03-07T11:01:00+05:00",
      "insurer" : {
        "reference" : "urn:uuid:c3b14300-76b8-461f-a0e3-f8f642535a06",
        "display" : "Organization"
      },
      "provider" : {
        "reference" : "urn:uuid:3edacfa8-10eb-413c-80b8-a21c2253f0e5",
        "display" : "Organization"
      },
      "priority" : {
        "coding" : [{
          "system" : "http://terminology.hl7.org/CodeSystem/processpriority",
          "code" : "normal"
        }]
      },
      "careTeam" : [{
        "sequence" : 1,
        "provider" : {
          "reference" : "urn:uuid:45abb9dc-8a64-4e82-ab69-6ee110bf4481",
          "display" : "Practitioner"
        },
        "role" : {
          "coding" : [{
            "system" : "http://snomed.info/sct",
            "code" : "223366009",
            "display" : "Healthcare professional (occupation)"
          }]
        },
        "qualification" : {
          "coding" : [{
            "system" : "http://snomed.info/sct",
            "code" : "394658006",
            "display" : "Clinical specialty (qualifier value)"
          }]
        }
      }],
      "diagnosis" : [{
        "sequence" : 1,
        "diagnosisCodeableConcept" : {
          "coding" : [{
            "system" : "http://hl7.org/fhir/sid/icd-10",
            "code" : "I46.9",
            "display" : "Cardiac arrest, unspecified"
          }]
        },
        "type" : [{
          "coding" : [{
            "system" : "http://snomed.info/sct",
            "code" : "89100005",
            "display" : "Final diagnosis (discharge) (contextual qualifier) (qualifier value)"
          }]
        }]
      }],
      "procedure" : [{
        "sequence" : 1,
        "procedureCodeableConcept" : {
          "coding" : [{
            "system" : "http://snomed.info/sct",
            "code" : "77343006",
            "display" : "Angiography"
          }]
        }
      },
      {
        "sequence" : 2,
        "procedureCodeableConcept" : {
          "coding" : [{
            "system" : "http://snomed.info/sct",
            "code" : "418285008",
            "display" : "Angioplasty of blood vessel"
          }]
        }
      }],
      "insurance" : [{
        "sequence" : 1,
        "focal" : true,
        "coverage" : {
          "reference" : "urn:uuid:4f95b4e1-9f61-468b-802a-ece8094370d9",
          "display" : "Coverage"
        }
      }],
      "item" : [{
        "sequence" : 1,
        "careTeamSequence" : [1],
        "productOrService" : {
          "coding" : [{
            "system" : "http://snomed.info/sct",
            "code" : "77343006",
            "display" : "Angiography"
          }]
        },
        "unitPrice" : {
          "value" : 10000,
          "currency" : "INR"
        },
        "net" : {
          "value" : 10000,
          "currency" : "INR"
        }
      },
      {
        "sequence" : 2,
        "careTeamSequence" : [1],
        "productOrService" : {
          "coding" : [{
            "system" : "http://snomed.info/sct",
            "code" : "418285008",
            "display" : "Angioplasty of blood vessel"
          }]
        },
        "unitPrice" : {
          "value" : 40000,
          "currency" : "INR"
        },
        "net" : {
          "value" : 40000,
          "currency" : "INR"
        }
      },
      {
        "sequence" : 3,
        "careTeamSequence" : [1],
        "productOrService" : {
          "coding" : [{
            "system" : "http://snomed.info/sct",
            "code" : "309904001",
            "display" : "Intensive care unit"
          }]
        },
        "unitPrice" : {
          "value" : 2000,
          "currency" : "INR"
        },
        "net" : {
          "value" : 20000,
          "currency" : "INR"
        }
      }],
      "total" : {
        "value" : 70000,
        "currency" : "INR"
      }
    }
  },
  {
    "fullUrl" : "urn:uuid:1761e489-1265-4574-a7ee-14379479c2b4",
    "resource" : {
      "resourceType" : "Patient",
      "id" : "1761e489-1265-4574-a7ee-14379479c2b4",
      "meta" : {
        "profile" : ["https://nrces.in/ndhm/fhir/r4/StructureDefinition/Patient"]
      },
      "text" : {
        "status" : "generated",
        "div" : "<div xmlns=\"http://www.w3.org/1999/xhtml\"><a name=\"Patient_1761e489-1265-4574-a7ee-14379479c2b4\"> </a><p class=\"res-header-id\"><b>Generated Narrative: Patient 1761e489-1265-4574-a7ee-14379479c2b4</b></p><a name=\"1761e489-1265-4574-a7ee-14379479c2b4\"> </a><a name=\"hc1761e489-1265-4574-a7ee-14379479c2b4\"> </a><a name=\"1761e489-1265-4574-a7ee-14379479c2b4-hi-IN\"> </a><p style=\"border: 1px #661aff solid; background-color: #e6e6ff; padding: 10px;\">Adarsh Agrawal Male, DoB: 1981-01-12 ( Adhaar number: 7225-4829-5255)</p><hr/><table class=\"grid\"><tr><td style=\"background-color: #f3f5da\" title=\"Ways to contact the Patient\">Contact Detail</td><td colspan=\"3\"><a href=\"tel:+919818512600\">+919818512600</a></td></tr></table></div>"
      },
      "identifier" : [{
        "type" : {
          "coding" : [{
            "system" : "https://nrces.in/ndhm/fhir/r4/CodeSystem/ndhm-identifier-type-code",
            "code" : "ADN",
            "display" : "Adhaar number"
          }]
        },
        "system" : "https://uidai.gov.in/",
        "value" : "7225-4829-5255"
      }],
      "name" : [{
        "text" : "Adarsh Agrawal"
      }],
      "telecom" : [{
        "system" : "phone",
        "value" : "+919818512600",
        "use" : "home"
      }],
      "gender" : "male",
      "birthDate" : "1981-01-12"
    }
  },
  {
    "fullUrl" : "urn:uuid:c3b14300-76b8-461f-a0e3-f8f642535a06",
    "resource" : {
      "resourceType" : "Organization",
      "id" : "c3b14300-76b8-461f-a0e3-f8f642535a06",
      "meta" : {
        "profile" : ["https://nrces.in/ndhm/fhir/r4/StructureDefinition/Organization"]
      },
      "text" : {
        "status" : "generated",
        "div" : "<div xmlns=\"http://www.w3.org/1999/xhtml\"><a name=\"Organization_c3b14300-76b8-461f-a0e3-f8f642535a06\"> </a><p class=\"res-header-id\"><b>Generated Narrative: Organization c3b14300-76b8-461f-a0e3-f8f642535a06</b></p><a name=\"c3b14300-76b8-461f-a0e3-f8f642535a06\"> </a><a name=\"hcc3b14300-76b8-461f-a0e3-f8f642535a06\"> </a><a name=\"c3b14300-76b8-461f-a0e3-f8f642535a06-hi-IN\"> </a><p><b>identifier</b>: Registry of Hospitals in Network of Insurance (ROHINI) ID/4567878</p><p><b>type</b>: <span title=\"Codes:{http://terminology.hl7.org/CodeSystem/organization-type ins}\">Insurance Company</span></p><p><b>name</b>: XYZ Insurance Co. Ltd.</p><p><b>telecom</b>: <a href=\"tel:+9124326341234\">+91 243 2634 1234</a>, <a href=\"mailto:contact@xyz.org\">contact@xyz.org</a></p></div>"
      },
      "identifier" : [{
        "type" : {
          "coding" : [{
            "system" : "https://nrces.in/ndhm/fhir/r4/CodeSystem/ndhm-identifier-type-code",
            "code" : "ROHINI",
            "display" : "Registry of Hospitals in Network of Insurance (ROHINI) ID"
          }]
        },
        "system" : "https://rohini.iib.gov.in/",
        "value" : "4567878"
      }],
      "type" : [{
        "coding" : [{
          "system" : "http://terminology.hl7.org/CodeSystem/organization-type",
          "code" : "ins",
          "display" : "Insurance Company"
        }]
      }],
      "name" : "XYZ Insurance Co. Ltd.",
      "telecom" : [{
        "system" : "phone",
        "value" : "+91 243 2634 1234",
        "use" : "work"
      },
      {
        "system" : "email",
        "value" : "contact@xyz.org",
        "use" : "work"
      }]
    }
  },
  {
    "fullUrl" : "urn:uuid:3edacfa8-10eb-413c-80b8-a21c2253f0e5",
    "resource" : {
      "resourceType" : "Organization",
      "id" : "3edacfa8-10eb-413c-80b8-a21c2253f0e5",
      "meta" : {
        "profile" : ["https://nrces.in/ndhm/fhir/r4/StructureDefinition/Organization"]
      },
      "text" : {
        "status" : "generated",
        "div" : "<div xmlns=\"http://www.w3.org/1999/xhtml\"><a name=\"Organization_3edacfa8-10eb-413c-80b8-a21c2253f0e5\"> </a><p class=\"res-header-id\"><b>Generated Narrative: Organization 3edacfa8-10eb-413c-80b8-a21c2253f0e5</b></p><a name=\"3edacfa8-10eb-413c-80b8-a21c2253f0e5\"> </a><a name=\"hc3edacfa8-10eb-413c-80b8-a21c2253f0e5\"> </a><a name=\"3edacfa8-10eb-413c-80b8-a21c2253f0e5-hi-IN\"> </a><p><b>identifier</b>: Provider number/45675454</p><p><b>type</b>: <span title=\"Codes:{http://terminology.hl7.org/CodeSystem/organization-type prov}\">Healthcare Provider</span></p><p><b>name</b>: XYZ Hospital Co. Ltd.</p><p><b>telecom</b>: <a href=\"tel:+9124326341278\">+91 243 2634 1278</a>, <a href=\"mailto:contact@xyz.org\">contact@xyz.org</a></p></div>"
      },
      "identifier" : [{
        "type" : {
          "coding" : [{
            "system" : "http://terminology.hl7.org/CodeSystem/v2-0203",
            "code" : "PRN",
            "display" : "Provider number"
          }]
        },
        "system" : "https://facility.ndhm.gov.in",
        "value" : "45675454"
      }],
      "type" : [{
        "coding" : [{
          "system" : "http://terminology.hl7.org/CodeSystem/organization-type",
          "code" : "prov",
          "display" : "Healthcare Provider"
        }]
      }],
      "name" : "XYZ Hospital Co. Ltd.",
      "telecom" : [{
        "system" : "phone",
        "value" : "+91 243 2634 1278",
        "use" : "work"
      },
      {
        "system" : "email",
        "value" : "contact@xyz.org",
        "use" : "work"
      }]
    }
  },
  {
    "fullUrl" : "urn:uuid:45abb9dc-8a64-4e82-ab69-6ee110bf4481",
    "resource" : {
      "resourceType" : "Practitioner",
      "id" : "45abb9dc-8a64-4e82-ab69-6ee110bf4481",
      "meta" : {
        "profile" : ["https://nrces.in/ndhm/fhir/r4/StructureDefinition/Practitioner"]
      },
      "text" : {
        "status" : "generated",
        "div" : "<div xmlns=\"http://www.w3.org/1999/xhtml\"><a name=\"Practitioner_45abb9dc-8a64-4e82-ab69-6ee110bf4481\"> </a><p class=\"res-header-id\"><b>Generated Narrative: Practitioner 45abb9dc-8a64-4e82-ab69-6ee110bf4481</b></p><a name=\"45abb9dc-8a64-4e82-ab69-6ee110bf4481\"> </a><a name=\"hc45abb9dc-8a64-4e82-ab69-6ee110bf4481\"> </a><a name=\"45abb9dc-8a64-4e82-ab69-6ee110bf4481-hi-IN\"> </a><p><b>identifier</b>: Medical License number/21-1521-3828-3227</p><p><b>name</b>: Dr. Aayush Agrawal</p></div>"
      },
      "identifier" : [{
        "type" : {
          "coding" : [{
            "system" : "http://terminology.hl7.org/CodeSystem/v2-0203",
            "code" : "MD",
            "display" : "Medical License number"
          }]
        },
        "system" : "https://doctor.ndhm.gov.in",
        "value" : "21-1521-3828-3227"
      }],
      "name" : [{
        "text" : "Dr. Aayush Agrawal"
      }]
    }
  },
  {
    "fullUrl" : "urn:uuid:4f95b4e1-9f61-468b-802a-ece8094370d9",
    "resource" : {
      "resourceType" : "Coverage",
      "id" : "4f95b4e1-9f61-468b-802a-ece8094370d9",
      "meta" : {
        "profile" : ["https://nrces.in/ndhm/fhir/r4/StructureDefinition/Coverage"]
      },
      "text" : {
        "status" : "generated",
        "div" : "<div xmlns=\"http://www.w3.org/1999/xhtml\"><a name=\"Coverage_4f95b4e1-9f61-468b-802a-ece8094370d9\"> </a><p class=\"res-header-id\"><b>Generated Narrative: Coverage 4f95b4e1-9f61-468b-802a-ece8094370d9</b></p><a name=\"4f95b4e1-9f61-468b-802a-ece8094370d9\"> </a><a name=\"hc4f95b4e1-9f61-468b-802a-ece8094370d9\"> </a><a name=\"4f95b4e1-9f61-468b-802a-ece8094370d9-hi-IN\"> </a><p><b>identifier</b>: <code>https://xyzinsurance.in/policynumber/</code>/235037120</p><p><b>status</b>: Active</p><p><b>type</b>: <span title=\"Codes:{http://terminology.hl7.org/CodeSystem/v3-ActCode HIP}\">health insurance plan policy</span></p><p><b>subscriber</b>: <a href=\"Bundle-ClaimResponseBundle-predetermination-example-01.html#urn-uuid-1761e489-1265-4574-a7ee-14379479c2b4\">Patient</a></p><p><b>subscriberId</b>: ABC123456BI007</p><p><b>beneficiary</b>: <a href=\"Bundle-ClaimResponseBundle-predetermination-example-01.html#urn-uuid-1761e489-1265-4574-a7ee-14379479c2b4\">Patient</a></p><p><b>relationship</b>: <span title=\"Codes:{http://terminology.hl7.org/CodeSystem/subscriber-relationship self}\">Self</span></p><p><b>period</b>: ?? --&gt; 2026-03-17</p><p><b>payor</b>: <a href=\"Bundle-ClaimResponseBundle-predetermination-example-01.html#urn-uuid-c3b14300-76b8-461f-a0e3-f8f642535a06\">Organization</a></p></div>"
      },
      "identifier" : [{
        "system" : "https://xyzinsurance.in/policynumber/",
        "value" : "235037120"
      }],
      "status" : "active",
      "type" : {
        "coding" : [{
          "system" : "http://terminology.hl7.org/CodeSystem/v3-ActCode",
          "code" : "HIP",
          "display" : "health insurance plan policy"
        }]
      },
      "subscriber" : {
        "reference" : "urn:uuid:1761e489-1265-4574-a7ee-14379479c2b4",
        "display" : "Patient"
      },
      "subscriberId" : "ABC123456BI007",
      "beneficiary" : {
        "reference" : "urn:uuid:1761e489-1265-4574-a7ee-14379479c2b4",
        "display" : "Patient"
      },
      "relationship" : {
        "coding" : [{
          "system" : "http://terminology.hl7.org/CodeSystem/subscriber-relationship",
          "code" : "self"
        }]
      },
      "period" : {
        "end" : "2026-03-17"
      },
      "payor" : [{
        "reference" : "urn:uuid:c3b14300-76b8-461f-a0e3-f8f642535a06",
        "display" : "Organization"
      }]
    }
  }]
}