{
  "resourceType" : "Bundle",
  "id" : "InvoiceRecord-example-01",
  "meta" : {
    "versionId" : "1",
    "lastUpdated" : "2023-08-22T17:24:00.605+05:30",
    "profile" : ["https://nrces.in/ndhm/fhir/r4/StructureDefinition/DocumentBundle"],
    "security" : [{
      "system" : "http://terminology.hl7.org/CodeSystem/v3-Confidentiality",
      "code" : "V",
      "display" : "very restricted"
    }]
  },
  "identifier" : {
    "system" : "http://hip.in",
    "value" : "3cf54fc4-0178-4127-bb99-b20711404881"
  },
  "type" : "document",
  "timestamp" : "2023-08-22T17:31:00.605+05:30",
  "entry" : [{
    "fullUrl" : "urn:uuid:65165372-75f9-4ead-9058-89d78575a63a",
    "resource" : {
      "resourceType" : "Composition",
      "id" : "65165372-75f9-4ead-9058-89d78575a63a",
      "meta" : {
        "versionId" : "1",
        "lastUpdated" : "2023-08-22T17:24:00.605+05:30",
        "profile" : ["https://nrces.in/ndhm/fhir/r4/StructureDefinition/InvoiceRecord"]
      },
      "language" : "en-IN",
      "text" : {
        "status" : "generated",
        "div" : "<div xmlns=\"http://www.w3.org/1999/xhtml\" xml:lang=\"en-IN\" lang=\"en-IN\"><a name=\"Composition_65165372-75f9-4ead-9058-89d78575a63a\"> </a><p class=\"res-header-id\"><b>Generated Narrative: Composition 65165372-75f9-4ead-9058-89d78575a63a</b></p><a name=\"65165372-75f9-4ead-9058-89d78575a63a\"> </a><a name=\"hc65165372-75f9-4ead-9058-89d78575a63a\"> </a><a name=\"65165372-75f9-4ead-9058-89d78575a63a-hi-IN\"> </a><div style=\"display: inline-block; background-color: #d9e0e7; padding: 6px; margin: 4px; border: 1px solid #8da1b4; border-radius: 5px; line-height: 60%\"><p style=\"margin-bottom: 0px\">version: 1; Last updated: 2023-08-22 17:24:00+0530; Language: en-IN</p><p style=\"margin-bottom: 0px\">Profile: <a href=\"StructureDefinition-InvoiceRecord.html\">InvoiceRecord</a></p></div><p><b>status</b>: Final</p><p><b>type</b>: <span title=\"Codes:\">Invoice Record</span></p><p><b>date</b>: 2023-08-22 17:37:00+0530</p><p><b>author</b>: <a href=\"Bundle-InvoiceRecord-example-01.html#urn-uuid-49169b6a-6341-43f6-ba6f-7321e63a6052\">Bundle: identifier = http://hip.in#3cf54fc4-0178-4127-bb99-b20711404881; type = document; timestamp = 2023-08-22 17:31:00+0530</a></p><p><b>title</b>: Pharmacy Invoice Record</p></div>"
      },
      "status" : "final",
      "type" : {
        "text" : "Invoice Record"
      },
      "subject" : {
        "reference" : "urn:uuid:ca6bd047-83b9-4fbb-8817-f74d45fa87b0",
        "display" : "Patient"
      },
      "date" : "2023-08-22T17:37:00.605+05:30",
      "author" : [{
        "reference" : "urn:uuid:49169b6a-6341-43f6-ba6f-7321e63a6052"
      }],
      "title" : "Pharmacy Invoice Record",
      "section" : [{
        "title" : "Pharmacy Invoice Details",
        "entry" : [{
          "reference" : "urn:uuid:e05f2a7d-c585-400b-bb75-092193106a36",
          "type" : "Invoice"
        }]
      }]
    }
  },
  {
    "fullUrl" : "urn:uuid:ca6bd047-83b9-4fbb-8817-f74d45fa87b0",
    "resource" : {
      "resourceType" : "Patient",
      "id" : "ca6bd047-83b9-4fbb-8817-f74d45fa87b0",
      "meta" : {
        "versionId" : "1",
        "lastUpdated" : "2020-07-09T14:58:58.181+05:30",
        "profile" : ["https://nrces.in/ndhm/fhir/r4/StructureDefinition/Patient"]
      },
      "text" : {
        "status" : "generated",
        "div" : "<div xmlns=\"http://www.w3.org/1999/xhtml\"><a name=\"Patient_ca6bd047-83b9-4fbb-8817-f74d45fa87b0\"> </a><p class=\"res-header-id\"><b>Generated Narrative: Patient ca6bd047-83b9-4fbb-8817-f74d45fa87b0</b></p><a name=\"ca6bd047-83b9-4fbb-8817-f74d45fa87b0\"> </a><a name=\"hcca6bd047-83b9-4fbb-8817-f74d45fa87b0\"> </a><a name=\"ca6bd047-83b9-4fbb-8817-f74d45fa87b0-hi-IN\"> </a><div style=\"display: inline-block; background-color: #d9e0e7; padding: 6px; margin: 4px; border: 1px solid #8da1b4; border-radius: 5px; line-height: 60%\"><p style=\"margin-bottom: 0px\">version: 1; Last updated: 2020-07-09 14:58:58+0530</p><p style=\"margin-bottom: 0px\">Profile: <a href=\"StructureDefinition-Patient.html\">Patient</a></p></div><p style=\"border: 1px #661aff solid; background-color: #e6e6ff; padding: 10px;\">ABC Male, DoB: 1981-01-12 ( Medical record number: 22-7225-4829-5255)</p><hr/><table class=\"grid\"><tr><td style=\"background-color: #f3f5da\" title=\"Ways to contact the Patient\">Contact Detail</td><td colspan=\"3\"><a href=\"tel:+919818512600\">+919818512600</a></td></tr></table></div>"
      },
      "identifier" : [{
        "type" : {
          "coding" : [{
            "system" : "http://terminology.hl7.org/CodeSystem/v2-0203",
            "code" : "MR",
            "display" : "Medical record number"
          }]
        },
        "system" : "https://healthid.ndhm.gov.in",
        "value" : "22-7225-4829-5255"
      }],
      "name" : [{
        "text" : "ABC"
      }],
      "telecom" : [{
        "system" : "phone",
        "value" : "+919818512600",
        "use" : "home"
      }],
      "gender" : "male",
      "birthDate" : "1981-01-12"
    }
  },
  {
    "fullUrl" : "urn:uuid:49169b6a-6341-43f6-ba6f-7321e63a6052",
    "resource" : {
      "resourceType" : "Practitioner",
      "id" : "49169b6a-6341-43f6-ba6f-7321e63a6052",
      "meta" : {
        "versionId" : "1",
        "lastUpdated" : "2019-05-29T14:58:58.181+05:30",
        "profile" : ["https://nrces.in/ndhm/fhir/r4/StructureDefinition/Practitioner"]
      },
      "text" : {
        "status" : "generated",
        "div" : "<div xmlns=\"http://www.w3.org/1999/xhtml\"><a name=\"Practitioner_49169b6a-6341-43f6-ba6f-7321e63a6052\"> </a><p class=\"res-header-id\"><b>Generated Narrative: Practitioner 49169b6a-6341-43f6-ba6f-7321e63a6052</b></p><a name=\"49169b6a-6341-43f6-ba6f-7321e63a6052\"> </a><a name=\"hc49169b6a-6341-43f6-ba6f-7321e63a6052\"> </a><a name=\"49169b6a-6341-43f6-ba6f-7321e63a6052-hi-IN\"> </a><div style=\"display: inline-block; background-color: #d9e0e7; padding: 6px; margin: 4px; border: 1px solid #8da1b4; border-radius: 5px; line-height: 60%\"><p style=\"margin-bottom: 0px\">version: 1; Last updated: 2019-05-29 14:58:58+0530</p><p style=\"margin-bottom: 0px\">Profile: <a href=\"StructureDefinition-Practitioner.html\">Practitioner</a></p></div><p><b>identifier</b>: Medical License number/21-1521-3828-3227</p><p><b>name</b>: Dr. DEF</p></div>"
      },
      "identifier" : [{
        "type" : {
          "coding" : [{
            "system" : "http://terminology.hl7.org/CodeSystem/v2-0203",
            "code" : "MD",
            "display" : "Medical License number"
          }]
        },
        "system" : "https://doctor.ndhm.gov.in",
        "value" : "21-1521-3828-3227"
      }],
      "name" : [{
        "text" : "Dr. DEF"
      }]
    }
  },
  {
    "fullUrl" : "urn:uuid:e05f2a7d-c585-400b-bb75-092193106a36",
    "resource" : {
      "resourceType" : "Invoice",
      "id" : "e05f2a7d-c585-400b-bb75-092193106a36",
      "meta" : {
        "versionId" : "1",
        "lastUpdated" : "2023-08-23T17:02:00.181+05:30",
        "profile" : ["https://nrces.in/ndhm/fhir/r4/StructureDefinition/Invoice"]
      },
      "text" : {
        "status" : "generated",
        "div" : "<div xmlns=\"http://www.w3.org/1999/xhtml\"><a name=\"Invoice_e05f2a7d-c585-400b-bb75-092193106a36\"> </a><p class=\"res-header-id\"><b>Generated Narrative: Invoice e05f2a7d-c585-400b-bb75-092193106a36</b></p><a name=\"e05f2a7d-c585-400b-bb75-092193106a36\"> </a><a name=\"hce05f2a7d-c585-400b-bb75-092193106a36\"> </a><a name=\"e05f2a7d-c585-400b-bb75-092193106a36-hi-IN\"> </a><div style=\"display: inline-block; background-color: #d9e0e7; padding: 6px; margin: 4px; border: 1px solid #8da1b4; border-radius: 5px; line-height: 60%\"><p style=\"margin-bottom: 0px\">version: 1; Last updated: 2023-08-23 17:02:00+0530</p><p style=\"margin-bottom: 0px\">Profile: <a href=\"StructureDefinition-Invoice.html\">Invoice</a></p></div><p><b>identifier</b>: CA/5842</p><p><b>status</b>: issued</p><p><b>type</b>: <span title=\"Codes:{https://nrces.in/ndhm/fhir/r4/CodeSystem/ndhm-billing-codes 01}\">Pharmacy</span></p><p><b>subject</b>: <a href=\"Bundle-InvoiceRecord-example-01.html#urn-uuid-ca6bd047-83b9-4fbb-8817-f74d45fa87b0\">Patient</a></p><p><b>date</b>: 2023-05-01 10:00:00+0530</p><h3>Participants</h3><table class=\"grid\"><tr><td style=\"display: none\">-</td><td><b>Actor</b></td></tr><tr><td style=\"display: none\">*</td><td><a href=\"Bundle-InvoiceRecord-example-01.html#urn-uuid-49169b6a-6341-43f6-ba6f-7321e63a6052\">Practitioner</a></td></tr></table><blockquote><p><b>lineItem</b></p><p><b>sequence</b>: 1</p><p><b>chargeItem</b>: <a href=\"Bundle-InvoiceRecord-example-01.html#urn-uuid-6204db09-1b45-4ef3-80b2-028d0ecee054\">ChargeItem</a></p><blockquote><p><b>priceComponent</b></p><p><b>type</b>: base price</p><p><b>code</b>: <span title=\"Codes:{https://nrces.in/ndhm/fhir/r4/CodeSystem/ndhm-price-components 01}\">Rate</span></p><h3>Amounts</h3><table class=\"grid\"><tr><td style=\"display: none\">-</td><td><b>Value</b></td><td><b>Currency</b></td></tr><tr><td style=\"display: none\">*</td><td>80</td><td>Indian rupee</td></tr></table></blockquote><blockquote><p><b>priceComponent</b></p><p><b>type</b>: informational</p><p><b>code</b>: <span title=\"Codes:{https://nrces.in/ndhm/fhir/r4/CodeSystem/ndhm-price-components 00}\">MRP</span></p><h3>Amounts</h3><table class=\"grid\"><tr><td style=\"display: none\">-</td><td><b>Value</b></td><td><b>Currency</b></td></tr><tr><td style=\"display: none\">*</td><td>100</td><td>Indian rupee</td></tr></table></blockquote><blockquote><p><b>priceComponent</b></p><p><b>type</b>: discount</p><p><b>code</b>: <span title=\"Codes:{https://nrces.in/ndhm/fhir/r4/CodeSystem/ndhm-price-components 02}\">Discount</span></p><h3>Amounts</h3><table class=\"grid\"><tr><td style=\"display: none\">-</td><td><b>Value</b></td><td><b>Currency</b></td></tr><tr><td style=\"display: none\">*</td><td>0</td><td>Indian rupee</td></tr></table></blockquote><blockquote><p><b>priceComponent</b></p><p><b>type</b>: tax</p><p><b>code</b>: <span title=\"Codes:{https://nrces.in/ndhm/fhir/r4/CodeSystem/ndhm-price-components 03}\">CGST</span></p><h3>Amounts</h3><table class=\"grid\"><tr><td style=\"display: none\">-</td><td><b>Value</b></td><td><b>Currency</b></td></tr><tr><td style=\"display: none\">*</td><td>6</td><td>Indian rupee</td></tr></table></blockquote><blockquote><p><b>priceComponent</b></p><p><b>type</b>: tax</p><p><b>code</b>: <span title=\"Codes:{https://nrces.in/ndhm/fhir/r4/CodeSystem/ndhm-price-components 04}\">SGST</span></p><h3>Amounts</h3><table class=\"grid\"><tr><td style=\"display: none\">-</td><td><b>Value</b></td><td><b>Currency</b></td></tr><tr><td style=\"display: none\">*</td><td>6</td><td>Indian rupee</td></tr></table></blockquote></blockquote><blockquote><p><b>lineItem</b></p><p><b>sequence</b>: 2</p><p><b>chargeItem</b>: <a href=\"Bundle-InvoiceRecord-example-01.html#urn-uuid-3b22fcc1-e942-4371-8655-ae9b6f157e96\">ChargeItem</a></p><blockquote><p><b>priceComponent</b></p><p><b>type</b>: base price</p><p><b>code</b>: <span title=\"Codes:{https://nrces.in/ndhm/fhir/r4/CodeSystem/ndhm-price-components 01}\">Rate</span></p><h3>Amounts</h3><table class=\"grid\"><tr><td style=\"display: none\">-</td><td><b>Value</b></td><td><b>Currency</b></td></tr><tr><td style=\"display: none\">*</td><td>120</td><td>Indian rupee</td></tr></table></blockquote><blockquote><p><b>priceComponent</b></p><p><b>type</b>: informational</p><p><b>code</b>: <span title=\"Codes:{https://nrces.in/ndhm/fhir/r4/CodeSystem/ndhm-price-components 00}\">MRP</span></p><h3>Amounts</h3><table class=\"grid\"><tr><td style=\"display: none\">-</td><td><b>Value</b></td><td><b>Currency</b></td></tr><tr><td style=\"display: none\">*</td><td>150</td><td>Indian rupee</td></tr></table></blockquote><blockquote><p><b>priceComponent</b></p><p><b>type</b>: discount</p><p><b>code</b>: <span title=\"Codes:{https://nrces.in/ndhm/fhir/r4/CodeSystem/ndhm-price-components 02}\">Discount</span></p><h3>Amounts</h3><table class=\"grid\"><tr><td style=\"display: none\">-</td><td><b>Value</b></td><td><b>Currency</b></td></tr><tr><td style=\"display: none\">*</td><td>10</td><td>Indian rupee</td></tr></table></blockquote><blockquote><p><b>priceComponent</b></p><p><b>type</b>: tax</p><p><b>code</b>: <span title=\"Codes:{https://nrces.in/ndhm/fhir/r4/CodeSystem/ndhm-price-components 03}\">CGST</span></p><h3>Amounts</h3><table class=\"grid\"><tr><td style=\"display: none\">-</td><td><b>Value</b></td><td><b>Currency</b></td></tr><tr><td style=\"display: none\">*</td><td>8.4</td><td>Indian rupee</td></tr></table></blockquote><blockquote><p><b>priceComponent</b></p><p><b>type</b>: tax</p><p><b>code</b>: <span title=\"Codes:{https://nrces.in/ndhm/fhir/r4/CodeSystem/ndhm-price-components 04}\">SGST</span></p><h3>Amounts</h3><table class=\"grid\"><tr><td style=\"display: none\">-</td><td><b>Value</b></td><td><b>Currency</b></td></tr><tr><td style=\"display: none\">*</td><td>8.4</td><td>Indian rupee</td></tr></table></blockquote></blockquote><blockquote><p><b>lineItem</b></p><p><b>sequence</b>: 3</p><p><b>chargeItem</b>: <a href=\"Bundle-InvoiceRecord-example-01.html#urn-uuid-217e7c36-4558-425d-ae88-38e4bf1c9773\">ChargeItem</a></p><blockquote><p><b>priceComponent</b></p><p><b>type</b>: base price</p><p><b>code</b>: <span title=\"Codes:{https://nrces.in/ndhm/fhir/r4/CodeSystem/ndhm-price-components 01}\">Rate</span></p><h3>Amounts</h3><table class=\"grid\"><tr><td style=\"display: none\">-</td><td><b>Value</b></td><td><b>Currency</b></td></tr><tr><td style=\"display: none\">*</td><td>30</td><td>Indian rupee</td></tr></table></blockquote><blockquote><p><b>priceComponent</b></p><p><b>type</b>: informational</p><p><b>code</b>: <span title=\"Codes:{https://nrces.in/ndhm/fhir/r4/CodeSystem/ndhm-price-components 00}\">MRP</span></p><h3>Amounts</h3><table class=\"grid\"><tr><td style=\"display: none\">-</td><td><b>Value</b></td><td><b>Currency</b></td></tr><tr><td style=\"display: none\">*</td><td>50</td><td>Indian rupee</td></tr></table></blockquote><blockquote><p><b>priceComponent</b></p><p><b>type</b>: discount</p><p><b>code</b>: <span title=\"Codes:{https://nrces.in/ndhm/fhir/r4/CodeSystem/ndhm-price-components 02}\">Discount</span></p><h3>Amounts</h3><table class=\"grid\"><tr><td style=\"display: none\">-</td><td><b>Value</b></td><td><b>Currency</b></td></tr><tr><td style=\"display: none\">*</td><td>5</td><td>Indian rupee</td></tr></table></blockquote><blockquote><p><b>priceComponent</b></p><p><b>type</b>: tax</p><p><b>code</b>: <span title=\"Codes:{https://nrces.in/ndhm/fhir/r4/CodeSystem/ndhm-price-components 03}\">CGST</span></p><h3>Amounts</h3><table class=\"grid\"><tr><td style=\"display: none\">-</td><td><b>Value</b></td><td><b>Currency</b></td></tr><tr><td style=\"display: none\">*</td><td>2.7</td><td>Indian rupee</td></tr></table></blockquote><blockquote><p><b>priceComponent</b></p><p><b>type</b>: tax</p><p><b>code</b>: <span title=\"Codes:{https://nrces.in/ndhm/fhir/r4/CodeSystem/ndhm-price-components 04}\">SGST</span></p><h3>Amounts</h3><table class=\"grid\"><tr><td style=\"display: none\">-</td><td><b>Value</b></td><td><b>Currency</b></td></tr><tr><td style=\"display: none\">*</td><td>2.7</td><td>Indian rupee</td></tr></table></blockquote></blockquote><blockquote><p><b>lineItem</b></p><p><b>sequence</b>: 4</p><p><b>chargeItem</b>: <a href=\"Bundle-InvoiceRecord-example-01.html#urn-uuid-ff99ac0f-8a17-407f-94e8-4c47f16c0fa2\">ChargeItem</a></p><blockquote><p><b>priceComponent</b></p><p><b>type</b>: base price</p><p><b>code</b>: <span title=\"Codes:{https://nrces.in/ndhm/fhir/r4/CodeSystem/ndhm-price-components 01}\">Rate</span></p><h3>Amounts</h3><table class=\"grid\"><tr><td style=\"display: none\">-</td><td><b>Value</b></td><td><b>Currency</b></td></tr><tr><td style=\"display: none\">*</td><td>350</td><td>Indian rupee</td></tr></table></blockquote><blockquote><p><b>priceComponent</b></p><p><b>type</b>: informational</p><p><b>code</b>: <span title=\"Codes:{https://nrces.in/ndhm/fhir/r4/CodeSystem/ndhm-price-components 00}\">MRP</span></p><h3>Amounts</h3><table class=\"grid\"><tr><td style=\"display: none\">-</td><td><b>Value</b></td><td><b>Currency</b></td></tr><tr><td style=\"display: none\">*</td><td>410</td><td>Indian rupee</td></tr></table></blockquote><blockquote><p><b>priceComponent</b></p><p><b>type</b>: discount</p><p><b>code</b>: <span title=\"Codes:{https://nrces.in/ndhm/fhir/r4/CodeSystem/ndhm-price-components 02}\">Discount</span></p><h3>Amounts</h3><table class=\"grid\"><tr><td style=\"display: none\">-</td><td><b>Value</b></td><td><b>Currency</b></td></tr><tr><td style=\"display: none\">*</td><td>10</td><td>Indian rupee</td></tr></table></blockquote><blockquote><p><b>priceComponent</b></p><p><b>type</b>: tax</p><p><b>code</b>: <span title=\"Codes:{https://nrces.in/ndhm/fhir/r4/CodeSystem/ndhm-price-components 03}\">CGST</span></p><h3>Amounts</h3><table class=\"grid\"><tr><td style=\"display: none\">-</td><td><b>Value</b></td><td><b>Currency</b></td></tr><tr><td style=\"display: none\">*</td><td>24</td><td>Indian rupee</td></tr></table></blockquote><blockquote><p><b>priceComponent</b></p><p><b>type</b>: tax</p><p><b>code</b>: <span title=\"Codes:{https://nrces.in/ndhm/fhir/r4/CodeSystem/ndhm-price-components 04}\">SGST</span></p><h3>Amounts</h3><table class=\"grid\"><tr><td style=\"display: none\">-</td><td><b>Value</b></td><td><b>Currency</b></td></tr><tr><td style=\"display: none\">*</td><td>24</td><td>Indian rupee</td></tr></table></blockquote></blockquote><h3>TotalNets</h3><table class=\"grid\"><tr><td style=\"display: none\">-</td><td><b>Value</b></td><td><b>Currency</b></td></tr><tr><td style=\"display: none\">*</td><td>2752.2</td><td>Indian rupee</td></tr></table><h3>TotalGrosses</h3><table class=\"grid\"><tr><td style=\"display: none\">-</td><td><b>Value</b></td><td><b>Currency</b></td></tr><tr><td style=\"display: none\">*</td><td>2575</td><td>Indian rupee</td></tr></table></div>"
      },
      "identifier" : [{
        "value" : "CA/5842"
      }],
      "status" : "issued",
      "type" : {
        "coding" : [{
          "system" : "https://nrces.in/ndhm/fhir/r4/CodeSystem/ndhm-billing-codes",
          "code" : "01",
          "display" : "Pharmacy"
        }]
      },
      "subject" : {
        "reference" : "urn:uuid:ca6bd047-83b9-4fbb-8817-f74d45fa87b0",
        "display" : "Patient"
      },
      "date" : "2023-05-01T10:00:00.181+05:30",
      "participant" : [{
        "actor" : {
          "reference" : "urn:uuid:49169b6a-6341-43f6-ba6f-7321e63a6052",
          "display" : "Practitioner"
        }
      }],
      "lineItem" : [{
        "sequence" : 1,
        "chargeItemReference" : {
          "reference" : "urn:uuid:6204db09-1b45-4ef3-80b2-028d0ecee054",
          "display" : "ChargeItem"
        },
        "priceComponent" : [{
          "type" : "base",
          "code" : {
            "coding" : [{
              "system" : "https://nrces.in/ndhm/fhir/r4/CodeSystem/ndhm-price-components",
              "code" : "01",
              "display" : "Rate"
            }]
          },
          "amount" : {
            "value" : 80,
            "currency" : "INR"
          }
        },
        {
          "type" : "informational",
          "code" : {
            "coding" : [{
              "system" : "https://nrces.in/ndhm/fhir/r4/CodeSystem/ndhm-price-components",
              "code" : "00",
              "display" : "MRP"
            }]
          },
          "amount" : {
            "value" : 100,
            "currency" : "INR"
          }
        },
        {
          "type" : "discount",
          "code" : {
            "coding" : [{
              "system" : "https://nrces.in/ndhm/fhir/r4/CodeSystem/ndhm-price-components",
              "code" : "02",
              "display" : "Discount"
            }]
          },
          "amount" : {
            "value" : 0,
            "currency" : "INR"
          }
        },
        {
          "type" : "tax",
          "code" : {
            "coding" : [{
              "system" : "https://nrces.in/ndhm/fhir/r4/CodeSystem/ndhm-price-components",
              "code" : "03",
              "display" : "CGST"
            }]
          },
          "amount" : {
            "value" : 6,
            "currency" : "INR"
          }
        },
        {
          "type" : "tax",
          "code" : {
            "coding" : [{
              "system" : "https://nrces.in/ndhm/fhir/r4/CodeSystem/ndhm-price-components",
              "code" : "04",
              "display" : "SGST"
            }]
          },
          "amount" : {
            "value" : 6,
            "currency" : "INR"
          }
        }]
      },
      {
        "sequence" : 2,
        "chargeItemReference" : {
          "reference" : "urn:uuid:3b22fcc1-e942-4371-8655-ae9b6f157e96",
          "display" : "ChargeItem"
        },
        "priceComponent" : [{
          "type" : "base",
          "code" : {
            "coding" : [{
              "system" : "https://nrces.in/ndhm/fhir/r4/CodeSystem/ndhm-price-components",
              "code" : "01",
              "display" : "Rate"
            }]
          },
          "amount" : {
            "value" : 120,
            "currency" : "INR"
          }
        },
        {
          "type" : "informational",
          "code" : {
            "coding" : [{
              "system" : "https://nrces.in/ndhm/fhir/r4/CodeSystem/ndhm-price-components",
              "code" : "00",
              "display" : "MRP"
            }]
          },
          "amount" : {
            "value" : 150,
            "currency" : "INR"
          }
        },
        {
          "type" : "discount",
          "code" : {
            "coding" : [{
              "system" : "https://nrces.in/ndhm/fhir/r4/CodeSystem/ndhm-price-components",
              "code" : "02",
              "display" : "Discount"
            }]
          },
          "amount" : {
            "value" : 10,
            "currency" : "INR"
          }
        },
        {
          "type" : "tax",
          "code" : {
            "coding" : [{
              "system" : "https://nrces.in/ndhm/fhir/r4/CodeSystem/ndhm-price-components",
              "code" : "03",
              "display" : "CGST"
            }]
          },
          "amount" : {
            "value" : 8.4,
            "currency" : "INR"
          }
        },
        {
          "type" : "tax",
          "code" : {
            "coding" : [{
              "system" : "https://nrces.in/ndhm/fhir/r4/CodeSystem/ndhm-price-components",
              "code" : "04",
              "display" : "SGST"
            }]
          },
          "amount" : {
            "value" : 8.4,
            "currency" : "INR"
          }
        }]
      },
      {
        "sequence" : 3,
        "chargeItemReference" : {
          "reference" : "urn:uuid:217e7c36-4558-425d-ae88-38e4bf1c9773",
          "display" : "ChargeItem"
        },
        "priceComponent" : [{
          "type" : "base",
          "code" : {
            "coding" : [{
              "system" : "https://nrces.in/ndhm/fhir/r4/CodeSystem/ndhm-price-components",
              "code" : "01",
              "display" : "Rate"
            }]
          },
          "amount" : {
            "value" : 30,
            "currency" : "INR"
          }
        },
        {
          "type" : "informational",
          "code" : {
            "coding" : [{
              "system" : "https://nrces.in/ndhm/fhir/r4/CodeSystem/ndhm-price-components",
              "code" : "00",
              "display" : "MRP"
            }]
          },
          "amount" : {
            "value" : 50,
            "currency" : "INR"
          }
        },
        {
          "type" : "discount",
          "code" : {
            "coding" : [{
              "system" : "https://nrces.in/ndhm/fhir/r4/CodeSystem/ndhm-price-components",
              "code" : "02",
              "display" : "Discount"
            }]
          },
          "amount" : {
            "value" : 5,
            "currency" : "INR"
          }
        },
        {
          "type" : "tax",
          "code" : {
            "coding" : [{
              "system" : "https://nrces.in/ndhm/fhir/r4/CodeSystem/ndhm-price-components",
              "code" : "03",
              "display" : "CGST"
            }]
          },
          "amount" : {
            "value" : 2.7,
            "currency" : "INR"
          }
        },
        {
          "type" : "tax",
          "code" : {
            "coding" : [{
              "system" : "https://nrces.in/ndhm/fhir/r4/CodeSystem/ndhm-price-components",
              "code" : "04",
              "display" : "SGST"
            }]
          },
          "amount" : {
            "value" : 2.7,
            "currency" : "INR"
          }
        }]
      },
      {
        "sequence" : 4,
        "chargeItemReference" : {
          "reference" : "urn:uuid:ff99ac0f-8a17-407f-94e8-4c47f16c0fa2",
          "display" : "ChargeItem"
        },
        "priceComponent" : [{
          "type" : "base",
          "code" : {
            "coding" : [{
              "system" : "https://nrces.in/ndhm/fhir/r4/CodeSystem/ndhm-price-components",
              "code" : "01",
              "display" : "Rate"
            }]
          },
          "amount" : {
            "value" : 350,
            "currency" : "INR"
          }
        },
        {
          "type" : "informational",
          "code" : {
            "coding" : [{
              "system" : "https://nrces.in/ndhm/fhir/r4/CodeSystem/ndhm-price-components",
              "code" : "00",
              "display" : "MRP"
            }]
          },
          "amount" : {
            "value" : 410,
            "currency" : "INR"
          }
        },
        {
          "type" : "discount",
          "code" : {
            "coding" : [{
              "system" : "https://nrces.in/ndhm/fhir/r4/CodeSystem/ndhm-price-components",
              "code" : "02",
              "display" : "Discount"
            }]
          },
          "amount" : {
            "value" : 10,
            "currency" : "INR"
          }
        },
        {
          "type" : "tax",
          "code" : {
            "coding" : [{
              "system" : "https://nrces.in/ndhm/fhir/r4/CodeSystem/ndhm-price-components",
              "code" : "03",
              "display" : "CGST"
            }]
          },
          "amount" : {
            "value" : 24,
            "currency" : "INR"
          }
        },
        {
          "type" : "tax",
          "code" : {
            "coding" : [{
              "system" : "https://nrces.in/ndhm/fhir/r4/CodeSystem/ndhm-price-components",
              "code" : "04",
              "display" : "SGST"
            }]
          },
          "amount" : {
            "value" : 24,
            "currency" : "INR"
          }
        }]
      }],
      "totalNet" : {
        "value" : 2752.2,
        "currency" : "INR"
      },
      "totalGross" : {
        "value" : 2575,
        "currency" : "INR"
      }
    }
  },
  {
    "fullUrl" : "urn:uuid:6204db09-1b45-4ef3-80b2-028d0ecee054",
    "resource" : {
      "resourceType" : "ChargeItem",
      "id" : "6204db09-1b45-4ef3-80b2-028d0ecee054",
      "meta" : {
        "versionId" : "1",
        "lastUpdated" : "2023-08-21T11:30:00.181+05:30",
        "profile" : ["https://nrces.in/ndhm/fhir/r4/StructureDefinition/ChargeItem"]
      },
      "text" : {
        "status" : "generated",
        "div" : "<div xmlns=\"http://www.w3.org/1999/xhtml\"><a name=\"ChargeItem_6204db09-1b45-4ef3-80b2-028d0ecee054\"> </a><p class=\"res-header-id\"><b>Generated Narrative: ChargeItem 6204db09-1b45-4ef3-80b2-028d0ecee054</b></p><a name=\"6204db09-1b45-4ef3-80b2-028d0ecee054\"> </a><a name=\"hc6204db09-1b45-4ef3-80b2-028d0ecee054\"> </a><a name=\"6204db09-1b45-4ef3-80b2-028d0ecee054-hi-IN\"> </a><div style=\"display: inline-block; background-color: #d9e0e7; padding: 6px; margin: 4px; border: 1px solid #8da1b4; border-radius: 5px; line-height: 60%\"><p style=\"margin-bottom: 0px\">version: 1; Last updated: 2023-08-21 11:30:00+0530</p><p style=\"margin-bottom: 0px\">Profile: <a href=\"StructureDefinition-ChargeItem.html\">ChargeItem</a></p></div><p><b>status</b>: Billed</p><p><b>code</b>: <span title=\"Codes:{https://nrces.in/ndhm/fhir/r4/CodeSystem/ndhm-billing-codes 05}\">Medicines</span></p><p><b>subject</b>: <a href=\"Bundle-InvoiceRecord-example-01.html#urn-uuid-ca6bd047-83b9-4fbb-8817-f74d45fa87b0\">Patient</a></p><h3>Performers</h3><table class=\"grid\"><tr><td style=\"display: none\">-</td><td><b>Actor</b></td></tr><tr><td style=\"display: none\">*</td><td><a href=\"Bundle-InvoiceRecord-example-01.html#urn-uuid-49169b6a-6341-43f6-ba6f-7321e63a6052\">Practitioner</a></td></tr></table><p><b>quantity</b>: 1 Tablet</p><p><b>product</b>: <a href=\"Bundle-InvoiceRecord-example-01.html#urn-uuid-93446f6a-f3fd-4bfc-8207-de97d5f13835\">Medication</a></p></div>"
      },
      "status" : "billed",
      "code" : {
        "coding" : [{
          "system" : "https://nrces.in/ndhm/fhir/r4/CodeSystem/ndhm-billing-codes",
          "code" : "05",
          "display" : "Medicines"
        }]
      },
      "subject" : {
        "reference" : "urn:uuid:ca6bd047-83b9-4fbb-8817-f74d45fa87b0",
        "display" : "Patient"
      },
      "performer" : [{
        "actor" : {
          "reference" : "urn:uuid:49169b6a-6341-43f6-ba6f-7321e63a6052",
          "display" : "Practitioner"
        }
      }],
      "quantity" : {
        "value" : 1,
        "unit" : "Tablet"
      },
      "productReference" : {
        "reference" : "urn:uuid:93446f6a-f3fd-4bfc-8207-de97d5f13835",
        "display" : "Medication"
      }
    }
  },
  {
    "fullUrl" : "urn:uuid:3b22fcc1-e942-4371-8655-ae9b6f157e96",
    "resource" : {
      "resourceType" : "ChargeItem",
      "id" : "3b22fcc1-e942-4371-8655-ae9b6f157e96",
      "meta" : {
        "versionId" : "1",
        "lastUpdated" : "2023-08-21T14:56:00.181+05:30",
        "profile" : ["https://nrces.in/ndhm/fhir/r4/StructureDefinition/ChargeItem"]
      },
      "text" : {
        "status" : "generated",
        "div" : "<div xmlns=\"http://www.w3.org/1999/xhtml\"><a name=\"ChargeItem_3b22fcc1-e942-4371-8655-ae9b6f157e96\"> </a><p class=\"res-header-id\"><b>Generated Narrative: ChargeItem 3b22fcc1-e942-4371-8655-ae9b6f157e96</b></p><a name=\"3b22fcc1-e942-4371-8655-ae9b6f157e96\"> </a><a name=\"hc3b22fcc1-e942-4371-8655-ae9b6f157e96\"> </a><a name=\"3b22fcc1-e942-4371-8655-ae9b6f157e96-hi-IN\"> </a><div style=\"display: inline-block; background-color: #d9e0e7; padding: 6px; margin: 4px; border: 1px solid #8da1b4; border-radius: 5px; line-height: 60%\"><p style=\"margin-bottom: 0px\">version: 1; Last updated: 2023-08-21 14:56:00+0530</p><p style=\"margin-bottom: 0px\">Profile: <a href=\"StructureDefinition-ChargeItem.html\">ChargeItem</a></p></div><p><b>status</b>: Billed</p><p><b>code</b>: <span title=\"Codes:{https://nrces.in/ndhm/fhir/r4/CodeSystem/ndhm-billing-codes 05}\">Medicines</span></p><p><b>subject</b>: <a href=\"Bundle-InvoiceRecord-example-01.html#urn-uuid-ca6bd047-83b9-4fbb-8817-f74d45fa87b0\">Patient</a></p><h3>Performers</h3><table class=\"grid\"><tr><td style=\"display: none\">-</td><td><b>Actor</b></td></tr><tr><td style=\"display: none\">*</td><td><a href=\"Bundle-InvoiceRecord-example-01.html#urn-uuid-49169b6a-6341-43f6-ba6f-7321e63a6052\">Practitioner</a></td></tr></table><p><b>quantity</b>: 10 Tablet</p><p><b>product</b>: <a href=\"Bundle-InvoiceRecord-example-01.html#urn-uuid-e8058082-fa10-466a-a78b-dc09e882c546\">Medication</a></p></div>"
      },
      "status" : "billed",
      "code" : {
        "coding" : [{
          "system" : "https://nrces.in/ndhm/fhir/r4/CodeSystem/ndhm-billing-codes",
          "code" : "05",
          "display" : "Medicines"
        }]
      },
      "subject" : {
        "reference" : "urn:uuid:ca6bd047-83b9-4fbb-8817-f74d45fa87b0",
        "display" : "Patient"
      },
      "performer" : [{
        "actor" : {
          "reference" : "urn:uuid:49169b6a-6341-43f6-ba6f-7321e63a6052",
          "display" : "Practitioner"
        }
      }],
      "quantity" : {
        "value" : 10,
        "unit" : "Tablet"
      },
      "productReference" : {
        "reference" : "urn:uuid:e8058082-fa10-466a-a78b-dc09e882c546",
        "display" : "Medication"
      }
    }
  },
  {
    "fullUrl" : "urn:uuid:217e7c36-4558-425d-ae88-38e4bf1c9773",
    "resource" : {
      "resourceType" : "ChargeItem",
      "id" : "217e7c36-4558-425d-ae88-38e4bf1c9773",
      "meta" : {
        "versionId" : "1",
        "lastUpdated" : "2023-08-21T11:30:00.181+05:30",
        "profile" : ["https://nrces.in/ndhm/fhir/r4/StructureDefinition/ChargeItem"]
      },
      "text" : {
        "status" : "generated",
        "div" : "<div xmlns=\"http://www.w3.org/1999/xhtml\"><a name=\"ChargeItem_217e7c36-4558-425d-ae88-38e4bf1c9773\"> </a><p class=\"res-header-id\"><b>Generated Narrative: ChargeItem 217e7c36-4558-425d-ae88-38e4bf1c9773</b></p><a name=\"217e7c36-4558-425d-ae88-38e4bf1c9773\"> </a><a name=\"hc217e7c36-4558-425d-ae88-38e4bf1c9773\"> </a><a name=\"217e7c36-4558-425d-ae88-38e4bf1c9773-hi-IN\"> </a><div style=\"display: inline-block; background-color: #d9e0e7; padding: 6px; margin: 4px; border: 1px solid #8da1b4; border-radius: 5px; line-height: 60%\"><p style=\"margin-bottom: 0px\">version: 1; Last updated: 2023-08-21 11:30:00+0530</p><p style=\"margin-bottom: 0px\">Profile: <a href=\"StructureDefinition-ChargeItem.html\">ChargeItem</a></p></div><p><b>status</b>: Billed</p><p><b>code</b>: <span title=\"Codes:{https://nrces.in/ndhm/fhir/r4/CodeSystem/ndhm-billing-codes 05}\">Medicines</span></p><p><b>subject</b>: <a href=\"Bundle-InvoiceRecord-example-01.html#urn-uuid-ca6bd047-83b9-4fbb-8817-f74d45fa87b0\">Patient</a></p><h3>Performers</h3><table class=\"grid\"><tr><td style=\"display: none\">-</td><td><b>Actor</b></td></tr><tr><td style=\"display: none\">*</td><td><a href=\"Bundle-InvoiceRecord-example-01.html#urn-uuid-49169b6a-6341-43f6-ba6f-7321e63a6052\">Practitioner</a></td></tr></table><p><b>quantity</b>: 15 Tablet</p><p><b>product</b>: <a href=\"Bundle-InvoiceRecord-example-01.html#urn-uuid-94695ca7-2093-4475-a655-9c31f994c8be\">Medication</a></p></div>"
      },
      "status" : "billed",
      "code" : {
        "coding" : [{
          "system" : "https://nrces.in/ndhm/fhir/r4/CodeSystem/ndhm-billing-codes",
          "code" : "05",
          "display" : "Medicines"
        }]
      },
      "subject" : {
        "reference" : "urn:uuid:ca6bd047-83b9-4fbb-8817-f74d45fa87b0",
        "display" : "Patient"
      },
      "performer" : [{
        "actor" : {
          "reference" : "urn:uuid:49169b6a-6341-43f6-ba6f-7321e63a6052",
          "display" : "Practitioner"
        }
      }],
      "quantity" : {
        "value" : 15,
        "unit" : "Tablet"
      },
      "productReference" : {
        "reference" : "urn:uuid:94695ca7-2093-4475-a655-9c31f994c8be",
        "display" : "Medication"
      }
    }
  },
  {
    "fullUrl" : "urn:uuid:ff99ac0f-8a17-407f-94e8-4c47f16c0fa2",
    "resource" : {
      "resourceType" : "ChargeItem",
      "id" : "ff99ac0f-8a17-407f-94e8-4c47f16c0fa2",
      "meta" : {
        "versionId" : "1",
        "lastUpdated" : "2023-08-21T11:30:00.181+05:30",
        "profile" : ["https://nrces.in/ndhm/fhir/r4/StructureDefinition/ChargeItem"]
      },
      "text" : {
        "status" : "generated",
        "div" : "<div xmlns=\"http://www.w3.org/1999/xhtml\"><a name=\"ChargeItem_ff99ac0f-8a17-407f-94e8-4c47f16c0fa2\"> </a><p class=\"res-header-id\"><b>Generated Narrative: ChargeItem ff99ac0f-8a17-407f-94e8-4c47f16c0fa2</b></p><a name=\"ff99ac0f-8a17-407f-94e8-4c47f16c0fa2\"> </a><a name=\"hcff99ac0f-8a17-407f-94e8-4c47f16c0fa2\"> </a><a name=\"ff99ac0f-8a17-407f-94e8-4c47f16c0fa2-hi-IN\"> </a><div style=\"display: inline-block; background-color: #d9e0e7; padding: 6px; margin: 4px; border: 1px solid #8da1b4; border-radius: 5px; line-height: 60%\"><p style=\"margin-bottom: 0px\">version: 1; Last updated: 2023-08-21 11:30:00+0530</p><p style=\"margin-bottom: 0px\">Profile: <a href=\"StructureDefinition-ChargeItem.html\">ChargeItem</a></p></div><p><b>status</b>: Billed</p><p><b>code</b>: <span title=\"Codes:{https://nrces.in/ndhm/fhir/r4/CodeSystem/ndhm-billing-codes 05}\">Medicines</span></p><p><b>subject</b>: <a href=\"Bundle-InvoiceRecord-example-01.html#urn-uuid-ca6bd047-83b9-4fbb-8817-f74d45fa87b0\">Patient</a></p><h3>Performers</h3><table class=\"grid\"><tr><td style=\"display: none\">-</td><td><b>Actor</b></td></tr><tr><td style=\"display: none\">*</td><td><a href=\"Bundle-InvoiceRecord-example-01.html#urn-uuid-49169b6a-6341-43f6-ba6f-7321e63a6052\">Practitioner</a></td></tr></table><p><b>quantity</b>: 1 Eye Gel</p><p><b>product</b>: <a href=\"Bundle-InvoiceRecord-example-01.html#urn-uuid-d08754cc-5eb8-4b0a-ab45-f72800fd123e\">Medication</a></p></div>"
      },
      "status" : "billed",
      "code" : {
        "coding" : [{
          "system" : "https://nrces.in/ndhm/fhir/r4/CodeSystem/ndhm-billing-codes",
          "code" : "05",
          "display" : "Medicines"
        }]
      },
      "subject" : {
        "reference" : "urn:uuid:ca6bd047-83b9-4fbb-8817-f74d45fa87b0",
        "display" : "Patient"
      },
      "performer" : [{
        "actor" : {
          "reference" : "urn:uuid:49169b6a-6341-43f6-ba6f-7321e63a6052",
          "display" : "Practitioner"
        }
      }],
      "quantity" : {
        "value" : 1,
        "unit" : "Eye Gel"
      },
      "productReference" : {
        "reference" : "urn:uuid:d08754cc-5eb8-4b0a-ab45-f72800fd123e",
        "display" : "Medication"
      }
    }
  },
  {
    "fullUrl" : "urn:uuid:93446f6a-f3fd-4bfc-8207-de97d5f13835",
    "resource" : {
      "resourceType" : "Medication",
      "id" : "93446f6a-f3fd-4bfc-8207-de97d5f13835",
      "meta" : {
        "versionId" : "1",
        "lastUpdated" : "2023-08-21T10:25:00.181+05:30",
        "profile" : ["https://nrces.in/ndhm/fhir/r4/StructureDefinition/Medication"]
      },
      "text" : {
        "status" : "generated",
        "div" : "<div xmlns=\"http://www.w3.org/1999/xhtml\"><a name=\"Medication_93446f6a-f3fd-4bfc-8207-de97d5f13835\"> </a><p class=\"res-header-id\"><b>Generated Narrative: Medication 93446f6a-f3fd-4bfc-8207-de97d5f13835</b></p><a name=\"93446f6a-f3fd-4bfc-8207-de97d5f13835\"> </a><a name=\"hc93446f6a-f3fd-4bfc-8207-de97d5f13835\"> </a><a name=\"93446f6a-f3fd-4bfc-8207-de97d5f13835-hi-IN\"> </a><div style=\"display: inline-block; background-color: #d9e0e7; padding: 6px; margin: 4px; border: 1px solid #8da1b4; border-radius: 5px; line-height: 60%\"><p style=\"margin-bottom: 0px\">version: 1; Last updated: 2023-08-21 10:25:00+0530</p><p style=\"margin-bottom: 0px\">Profile: <a href=\"StructureDefinition-Medication.html\">Medication</a></p></div><p><b>identifier</b>: Harmonized System of Nomenclature/29222933</p><p><b>code</b>: <span title=\"Codes:{http://snomed.info/sct 1172863005}\">Paracetamol 1 g oral tablet</span></p><p><b>form</b>: <span title=\"Codes:{http://snomed.info/sct 385055001}\">Tablet</span></p><h3>Batches</h3><table class=\"grid\"><tr><td style=\"display: none\">-</td><td><b>LotNumber</b></td><td><b>ExpirationDate</b></td></tr><tr><td style=\"display: none\">*</td><td>22180423</td><td>2023-02-24</td></tr></table></div>"
      },
      "identifier" : [{
        "type" : {
          "coding" : [{
            "system" : "https://nrces.in/ndhm/fhir/r4/CodeSystem/ndhm-identifier-type-code",
            "code" : "HSN",
            "display" : "Harmonized System of Nomenclature"
          }]
        },
        "value" : "29222933"
      }],
      "code" : {
        "coding" : [{
          "system" : "http://snomed.info/sct",
          "code" : "1172863005",
          "display" : "Paracetamol 1 g oral tablet"
        }]
      },
      "form" : {
        "coding" : [{
          "system" : "http://snomed.info/sct",
          "code" : "385055001",
          "display" : "Tablet"
        }]
      },
      "batch" : {
        "lotNumber" : "22180423",
        "expirationDate" : "2023-02-24"
      }
    }
  },
  {
    "fullUrl" : "urn:uuid:e8058082-fa10-466a-a78b-dc09e882c546",
    "resource" : {
      "resourceType" : "Medication",
      "id" : "e8058082-fa10-466a-a78b-dc09e882c546",
      "meta" : {
        "versionId" : "1",
        "lastUpdated" : "2023-08-21T14:49:00.181+05:30",
        "profile" : ["https://nrces.in/ndhm/fhir/r4/StructureDefinition/Medication"]
      },
      "text" : {
        "status" : "generated",
        "div" : "<div xmlns=\"http://www.w3.org/1999/xhtml\"><a name=\"Medication_e8058082-fa10-466a-a78b-dc09e882c546\"> </a><p class=\"res-header-id\"><b>Generated Narrative: Medication e8058082-fa10-466a-a78b-dc09e882c546</b></p><a name=\"e8058082-fa10-466a-a78b-dc09e882c546\"> </a><a name=\"hce8058082-fa10-466a-a78b-dc09e882c546\"> </a><a name=\"e8058082-fa10-466a-a78b-dc09e882c546-hi-IN\"> </a><div style=\"display: inline-block; background-color: #d9e0e7; padding: 6px; margin: 4px; border: 1px solid #8da1b4; border-radius: 5px; line-height: 60%\"><p style=\"margin-bottom: 0px\">version: 1; Last updated: 2023-08-21 14:49:00+0530</p><p style=\"margin-bottom: 0px\">Profile: <a href=\"StructureDefinition-Medication.html\">Medication</a></p></div><p><b>identifier</b>: Harmonized System of Nomenclature/3004</p><p><b>code</b>: <span title=\"Codes:{http://snomed.info/sct 324409009}\">Sulfalene 2 g oral tablet</span></p><p><b>form</b>: <span title=\"Codes:{http://snomed.info/sct 385055001}\">Tablet</span></p><h3>Batches</h3><table class=\"grid\"><tr><td style=\"display: none\">-</td><td><b>LotNumber</b></td><td><b>ExpirationDate</b></td></tr><tr><td style=\"display: none\">*</td><td>22180424</td><td>2023-03-24</td></tr></table></div>"
      },
      "identifier" : [{
        "type" : {
          "coding" : [{
            "system" : "https://nrces.in/ndhm/fhir/r4/CodeSystem/ndhm-identifier-type-code",
            "code" : "HSN",
            "display" : "Harmonized System of Nomenclature"
          }]
        },
        "value" : "3004"
      }],
      "code" : {
        "coding" : [{
          "system" : "http://snomed.info/sct",
          "code" : "324409009",
          "display" : "Sulfalene 2 g oral tablet"
        }]
      },
      "form" : {
        "coding" : [{
          "system" : "http://snomed.info/sct",
          "code" : "385055001",
          "display" : "Tablet"
        }]
      },
      "batch" : {
        "lotNumber" : "22180424",
        "expirationDate" : "2023-03-24"
      }
    }
  },
  {
    "fullUrl" : "urn:uuid:94695ca7-2093-4475-a655-9c31f994c8be",
    "resource" : {
      "resourceType" : "Medication",
      "id" : "94695ca7-2093-4475-a655-9c31f994c8be",
      "meta" : {
        "versionId" : "1",
        "lastUpdated" : "2023-08-21T14:51:00.181+05:30",
        "profile" : ["https://nrces.in/ndhm/fhir/r4/StructureDefinition/Medication"]
      },
      "text" : {
        "status" : "generated",
        "div" : "<div xmlns=\"http://www.w3.org/1999/xhtml\"><a name=\"Medication_94695ca7-2093-4475-a655-9c31f994c8be\"> </a><p class=\"res-header-id\"><b>Generated Narrative: Medication 94695ca7-2093-4475-a655-9c31f994c8be</b></p><a name=\"94695ca7-2093-4475-a655-9c31f994c8be\"> </a><a name=\"hc94695ca7-2093-4475-a655-9c31f994c8be\"> </a><a name=\"94695ca7-2093-4475-a655-9c31f994c8be-hi-IN\"> </a><div style=\"display: inline-block; background-color: #d9e0e7; padding: 6px; margin: 4px; border: 1px solid #8da1b4; border-radius: 5px; line-height: 60%\"><p style=\"margin-bottom: 0px\">version: 1; Last updated: 2023-08-21 14:51:00+0530</p><p style=\"margin-bottom: 0px\">Profile: <a href=\"StructureDefinition-Medication.html\">Medication</a></p></div><p><b>identifier</b>: Harmonized System of Nomenclature/30049062</p><p><b>code</b>: <span title=\"Codes:{http://snomed.info/sct 765676008}\">Aspirin 650 mg gastro-resistant oral tablet</span></p><p><b>form</b>: <span title=\"Codes:{http://snomed.info/sct 385055001}\">Tablet</span></p><h3>Batches</h3><table class=\"grid\"><tr><td style=\"display: none\">-</td><td><b>LotNumber</b></td><td><b>ExpirationDate</b></td></tr><tr><td style=\"display: none\">*</td><td>22180425</td><td>2023-04-24</td></tr></table></div>"
      },
      "identifier" : [{
        "type" : {
          "coding" : [{
            "system" : "https://nrces.in/ndhm/fhir/r4/CodeSystem/ndhm-identifier-type-code",
            "code" : "HSN",
            "display" : "Harmonized System of Nomenclature"
          }]
        },
        "value" : "30049062"
      }],
      "code" : {
        "coding" : [{
          "system" : "http://snomed.info/sct",
          "code" : "765676008",
          "display" : "Aspirin 650 mg gastro-resistant oral tablet"
        }]
      },
      "form" : {
        "coding" : [{
          "system" : "http://snomed.info/sct",
          "code" : "385055001",
          "display" : "Tablet"
        }]
      },
      "batch" : {
        "lotNumber" : "22180425",
        "expirationDate" : "2023-04-24"
      }
    }
  },
  {
    "fullUrl" : "urn:uuid:d08754cc-5eb8-4b0a-ab45-f72800fd123e",
    "resource" : {
      "resourceType" : "Medication",
      "id" : "d08754cc-5eb8-4b0a-ab45-f72800fd123e",
      "meta" : {
        "versionId" : "1",
        "lastUpdated" : "2023-08-21T14:53:00.181+05:30",
        "profile" : ["https://nrces.in/ndhm/fhir/r4/StructureDefinition/Medication"]
      },
      "text" : {
        "status" : "generated",
        "div" : "<div xmlns=\"http://www.w3.org/1999/xhtml\"><a name=\"Medication_d08754cc-5eb8-4b0a-ab45-f72800fd123e\"> </a><p class=\"res-header-id\"><b>Generated Narrative: Medication d08754cc-5eb8-4b0a-ab45-f72800fd123e</b></p><a name=\"d08754cc-5eb8-4b0a-ab45-f72800fd123e\"> </a><a name=\"hcd08754cc-5eb8-4b0a-ab45-f72800fd123e\"> </a><a name=\"d08754cc-5eb8-4b0a-ab45-f72800fd123e-hi-IN\"> </a><div style=\"display: inline-block; background-color: #d9e0e7; padding: 6px; margin: 4px; border: 1px solid #8da1b4; border-radius: 5px; line-height: 60%\"><p style=\"margin-bottom: 0px\">version: 1; Last updated: 2023-08-21 14:53:00+0530</p><p style=\"margin-bottom: 0px\">Profile: <a href=\"StructureDefinition-Medication.html\">Medication</a></p></div><p><b>identifier</b>: Harmonized System of Nomenclature/3003</p><p><b>code</b>: <span title=\"Codes:{http://snomed.info/sct 330814003}\">Carbomer-980 2 mg/g eye gel</span></p><p><b>form</b>: <span title=\"Codes:{http://snomed.info/sct 385122009}\">Eye gel</span></p><h3>Batches</h3><table class=\"grid\"><tr><td style=\"display: none\">-</td><td><b>LotNumber</b></td><td><b>ExpirationDate</b></td></tr><tr><td style=\"display: none\">*</td><td>22180426</td><td>2023-05-24</td></tr></table></div>"
      },
      "identifier" : [{
        "type" : {
          "coding" : [{
            "system" : "https://nrces.in/ndhm/fhir/r4/CodeSystem/ndhm-identifier-type-code",
            "code" : "HSN",
            "display" : "Harmonized System of Nomenclature"
          }]
        },
        "value" : "3003"
      }],
      "code" : {
        "coding" : [{
          "system" : "http://snomed.info/sct",
          "code" : "330814003",
          "display" : "Carbomer-980 2 mg/g eye gel"
        }]
      },
      "form" : {
        "coding" : [{
          "system" : "http://snomed.info/sct",
          "code" : "385122009",
          "display" : "Eye gel"
        }]
      },
      "batch" : {
        "lotNumber" : "22180426",
        "expirationDate" : "2023-05-24"
      }
    }
  }]
}