{
  "resourceType" : "Bundle",
  "id" : "CoverageEligibilityResponseBundle-benefits-example-01",
  "meta" : {
    "profile" : ["https://nrces.in/ndhm/fhir/r4/StructureDefinition/CoverageEligibilityResponseBundle"]
  },
  "identifier" : {
    "value" : "bc3c6c57-2053-4d0e-ac40-139ccccff645"
  },
  "type" : "collection",
  "timestamp" : "2025-03-07T15:32:26.605+05:30",
  "entry" : [{
    "fullUrl" : "urn:uuid:e7bf6383-fb7e-4bb2-a5fc-d65ab75f34c0",
    "resource" : {
      "resourceType" : "CoverageEligibilityResponse",
      "id" : "e7bf6383-fb7e-4bb2-a5fc-d65ab75f34c0",
      "meta" : {
        "profile" : ["https://nrces.in/ndhm/fhir/r4/StructureDefinition/CoverageEligibilityResponse"]
      },
      "language" : "en",
      "text" : {
        "status" : "generated",
        "div" : "<div xmlns=\"http://www.w3.org/1999/xhtml\" xml:lang=\"en\" lang=\"en\"><a name=\"CoverageEligibilityResponse_e7bf6383-fb7e-4bb2-a5fc-d65ab75f34c0\"> </a><p class=\"res-header-id\"><b>Generated Narrative: CoverageEligibilityResponse e7bf6383-fb7e-4bb2-a5fc-d65ab75f34c0</b></p><a name=\"e7bf6383-fb7e-4bb2-a5fc-d65ab75f34c0\"> </a><a name=\"hce7bf6383-fb7e-4bb2-a5fc-d65ab75f34c0\"> </a><a name=\"e7bf6383-fb7e-4bb2-a5fc-d65ab75f34c0-hi-IN\"> </a><div style=\"display: inline-block; background-color: #d9e0e7; padding: 6px; margin: 4px; border: 1px solid #8da1b4; border-radius: 5px; line-height: 60%\"><p style=\"margin-bottom: 0px\">Language: en</p><p style=\"margin-bottom: 0px\">Profile: <a href=\"StructureDefinition-CoverageEligibilityResponse.html\">CoverageEligibilityResponse</a></p></div><p><b>status</b>: Active</p><p><b>purpose</b>: Coverage benefits</p><p><b>patient</b>: <a href=\"Bundle-CoverageEligibilityResponseBundle-benefits-example-01.html#urn-uuid-37dbfdfb-cc6e-4cb5-86e9-6151679082e2\">Patient</a></p><p><b>created</b>: 2025-03-07</p><p><b>requestor</b>: <a href=\"Bundle-CoverageEligibilityResponseBundle-benefits-example-01.html#urn-uuid-0e17029b-e167-4473-9679-4b9052a8eca8\">Organization</a></p><p><b>request</b>: <a href=\"Bundle-CoverageEligibilityResponseBundle-benefits-example-01.html#urn-uuid-b15ef5ed-c9ac-4539-8c04-d162b7fcf3b2\">CoverageEligibilityRequest-benefits</a></p><p><b>outcome</b>: Processing Complete</p><p><b>disposition</b>: Policy is currently in-force.</p><p><b>insurer</b>: <a href=\"Bundle-CoverageEligibilityResponseBundle-benefits-example-01.html#urn-uuid-01806af2-daf1-4473-a31b-657787eadee3\">Organization</a></p><blockquote><p><b>insurance</b></p><p><b>coverage</b>: <a href=\"Bundle-CoverageEligibilityResponseBundle-benefits-example-01.html#urn-uuid-1c3642a2-2d2c-4812-8736-67c74862955a\">Coverage</a></p><p><b>inforce</b>: true</p><p><b>benefitPeriod</b>: 2023-09-07 --&gt; 2026-08-07</p><blockquote><p><b>item</b></p><p><b>productOrService</b>: <span title=\"Codes:{http://snomed.info/sct 768839008}\">Consultant</span></p><h3>Benefits</h3><table class=\"grid\"><tr><td style=\"display: none\">-</td><td><b>Type</b></td><td><b>Allowed[x]</b></td><td><b>Used[x]</b></td></tr><tr><td style=\"display: none\">*</td><td><span title=\"Codes:{http://terminology.hl7.org/CodeSystem/benefit-type benefit}\">Benefit</span></td><td><span title=\"Indian Rupee\">₹50,000.00</span> (INR)</td><td><span title=\"Indian Rupee\">₹0.00</span> (INR)</td></tr></table></blockquote><blockquote><p><b>item</b></p><p><b>productOrService</b>: <span title=\"Codes:{http://snomed.info/sct 765507008}\">Metformin hydrochloride 500 mg prolonged-release oral tablet</span></p><h3>Benefits</h3><table class=\"grid\"><tr><td style=\"display: none\">-</td><td><b>Type</b></td><td><b>Allowed[x]</b></td><td><b>Used[x]</b></td></tr><tr><td style=\"display: none\">*</td><td><span title=\"Codes:{http://terminology.hl7.org/CodeSystem/benefit-type benefit}\">Benefit</span></td><td><span title=\"Indian Rupee\">₹50,000.00</span> (INR)</td><td><span title=\"Indian Rupee\">₹0.00</span> (INR)</td></tr></table></blockquote></blockquote></div>"
      },
      "status" : "active",
      "purpose" : ["benefits"],
      "patient" : {
        "reference" : "urn:uuid:37dbfdfb-cc6e-4cb5-86e9-6151679082e2",
        "display" : "Patient"
      },
      "created" : "2025-03-07",
      "requestor" : {
        "reference" : "urn:uuid:0e17029b-e167-4473-9679-4b9052a8eca8",
        "display" : "Organization"
      },
      "request" : {
        "reference" : "urn:uuid:b15ef5ed-c9ac-4539-8c04-d162b7fcf3b2",
        "display" : "CoverageEligibilityRequest-benefits"
      },
      "outcome" : "complete",
      "disposition" : "Policy is currently in-force.",
      "insurer" : {
        "reference" : "urn:uuid:01806af2-daf1-4473-a31b-657787eadee3",
        "display" : "Organization"
      },
      "insurance" : [{
        "coverage" : {
          "reference" : "urn:uuid:1c3642a2-2d2c-4812-8736-67c74862955a",
          "display" : "Coverage"
        },
        "inforce" : true,
        "benefitPeriod" : {
          "start" : "2023-09-07",
          "end" : "2026-08-07"
        },
        "item" : [{
          "productOrService" : {
            "coding" : [{
              "system" : "http://snomed.info/sct",
              "code" : "768839008",
              "display" : "Consultant"
            }]
          },
          "benefit" : [{
            "type" : {
              "coding" : [{
                "system" : "http://terminology.hl7.org/CodeSystem/benefit-type",
                "code" : "benefit",
                "display" : "Benefit"
              }]
            },
            "allowedMoney" : {
              "value" : 50000,
              "currency" : "INR"
            },
            "usedMoney" : {
              "value" : 0,
              "currency" : "INR"
            }
          }]
        },
        {
          "productOrService" : {
            "coding" : [{
              "system" : "http://snomed.info/sct",
              "code" : "765507008",
              "display" : "Metformin hydrochloride 500 mg prolonged-release oral tablet"
            }]
          },
          "benefit" : [{
            "type" : {
              "coding" : [{
                "system" : "http://terminology.hl7.org/CodeSystem/benefit-type",
                "code" : "benefit",
                "display" : "Benefit"
              }]
            },
            "allowedMoney" : {
              "value" : 50000,
              "currency" : "INR"
            },
            "usedMoney" : {
              "value" : 0,
              "currency" : "INR"
            }
          }]
        }]
      }]
    }
  },
  {
    "fullUrl" : "urn:uuid:37dbfdfb-cc6e-4cb5-86e9-6151679082e2",
    "resource" : {
      "resourceType" : "Patient",
      "id" : "37dbfdfb-cc6e-4cb5-86e9-6151679082e2",
      "meta" : {
        "profile" : ["https://nrces.in/ndhm/fhir/r4/StructureDefinition/Patient"]
      },
      "text" : {
        "status" : "generated",
        "div" : "<div xmlns=\"http://www.w3.org/1999/xhtml\"><a name=\"Patient_37dbfdfb-cc6e-4cb5-86e9-6151679082e2\"> </a><p class=\"res-header-id\"><b>Generated Narrative: Patient 37dbfdfb-cc6e-4cb5-86e9-6151679082e2</b></p><a name=\"37dbfdfb-cc6e-4cb5-86e9-6151679082e2\"> </a><a name=\"hc37dbfdfb-cc6e-4cb5-86e9-6151679082e2\"> </a><a name=\"37dbfdfb-cc6e-4cb5-86e9-6151679082e2-hi-IN\"> </a><p style=\"border: 1px #661aff solid; background-color: #e6e6ff; padding: 10px;\">Adarsh Agrawal Male, DoB: 1981-01-12 ( Adhaar number: 7225-4829-5255)</p><hr/><table class=\"grid\"><tr><td style=\"background-color: #f3f5da\" title=\"Ways to contact the Patient\">Contact Detail</td><td colspan=\"3\"><a href=\"tel:+919818512600\">+919818512600</a></td></tr></table></div>"
      },
      "identifier" : [{
        "type" : {
          "coding" : [{
            "system" : "https://nrces.in/ndhm/fhir/r4/CodeSystem/ndhm-identifier-type-code",
            "code" : "ADN",
            "display" : "Adhaar number"
          }]
        },
        "system" : "https://uidai.gov.in/",
        "value" : "7225-4829-5255"
      }],
      "name" : [{
        "text" : "Adarsh Agrawal"
      }],
      "telecom" : [{
        "system" : "phone",
        "value" : "+919818512600",
        "use" : "home"
      }],
      "gender" : "male",
      "birthDate" : "1981-01-12"
    }
  },
  {
    "fullUrl" : "urn:uuid:752681ee-5db5-4cff-b10c-f9d6f69fe014",
    "resource" : {
      "resourceType" : "Practitioner",
      "id" : "752681ee-5db5-4cff-b10c-f9d6f69fe014",
      "meta" : {
        "profile" : ["https://nrces.in/ndhm/fhir/r4/StructureDefinition/Practitioner"]
      },
      "text" : {
        "status" : "generated",
        "div" : "<div xmlns=\"http://www.w3.org/1999/xhtml\"><a name=\"Practitioner_752681ee-5db5-4cff-b10c-f9d6f69fe014\"> </a><p class=\"res-header-id\"><b>Generated Narrative: Practitioner 752681ee-5db5-4cff-b10c-f9d6f69fe014</b></p><a name=\"752681ee-5db5-4cff-b10c-f9d6f69fe014\"> </a><a name=\"hc752681ee-5db5-4cff-b10c-f9d6f69fe014\"> </a><a name=\"752681ee-5db5-4cff-b10c-f9d6f69fe014-hi-IN\"> </a><p><b>identifier</b>: Medical License number/21-1521-3828-3227</p><p><b>name</b>: Dr. Aayush Agrawal</p></div>"
      },
      "identifier" : [{
        "type" : {
          "coding" : [{
            "system" : "http://terminology.hl7.org/CodeSystem/v2-0203",
            "code" : "MD",
            "display" : "Medical License number"
          }]
        },
        "system" : "https://doctor.ndhm.gov.in",
        "value" : "21-1521-3828-3227"
      }],
      "name" : [{
        "text" : "Dr. Aayush Agrawal"
      }]
    }
  },
  {
    "fullUrl" : "urn:uuid:b15ef5ed-c9ac-4539-8c04-d162b7fcf3b2",
    "resource" : {
      "resourceType" : "CoverageEligibilityRequest",
      "id" : "b15ef5ed-c9ac-4539-8c04-d162b7fcf3b2",
      "meta" : {
        "profile" : ["https://nrces.in/ndhm/fhir/r4/StructureDefinition/CoverageEligibilityRequest"]
      },
      "language" : "en",
      "text" : {
        "status" : "generated",
        "div" : "<div xmlns=\"http://www.w3.org/1999/xhtml\" xml:lang=\"en\" lang=\"en\"><a name=\"CoverageEligibilityRequest_b15ef5ed-c9ac-4539-8c04-d162b7fcf3b2\"> </a><p class=\"res-header-id\"><b>Generated Narrative: CoverageEligibilityRequest b15ef5ed-c9ac-4539-8c04-d162b7fcf3b2</b></p><a name=\"b15ef5ed-c9ac-4539-8c04-d162b7fcf3b2\"> </a><a name=\"hcb15ef5ed-c9ac-4539-8c04-d162b7fcf3b2\"> </a><a name=\"b15ef5ed-c9ac-4539-8c04-d162b7fcf3b2-hi-IN\"> </a><div style=\"display: inline-block; background-color: #d9e0e7; padding: 6px; margin: 4px; border: 1px solid #8da1b4; border-radius: 5px; line-height: 60%\"><p style=\"margin-bottom: 0px\">Language: en</p><p style=\"margin-bottom: 0px\">Profile: <a href=\"StructureDefinition-CoverageEligibilityRequest.html\">CoverageEligibilityRequest</a></p></div><p><b>identifier</b>: 7612345</p><p><b>status</b>: Active</p><p><b>priority</b>: <span title=\"Codes:{http://terminology.hl7.org/CodeSystem/processpriority normal}\">Normal</span></p><p><b>purpose</b>: Coverage benefits</p><p><b>patient</b>: <a href=\"Bundle-CoverageEligibilityResponseBundle-benefits-example-01.html#urn-uuid-37dbfdfb-cc6e-4cb5-86e9-6151679082e2\">Patient</a></p><p><b>created</b>: 2025-03-07 11:01:00+0500</p><p><b>enterer</b>: <a href=\"Bundle-CoverageEligibilityResponseBundle-benefits-example-01.html#urn-uuid-752681ee-5db5-4cff-b10c-f9d6f69fe014\">Practitioner</a></p><p><b>provider</b>: <a href=\"Bundle-CoverageEligibilityResponseBundle-benefits-example-01.html#urn-uuid-0e17029b-e167-4473-9679-4b9052a8eca8\">Organization</a></p><p><b>insurer</b>: <a href=\"Bundle-CoverageEligibilityResponseBundle-benefits-example-01.html#urn-uuid-01806af2-daf1-4473-a31b-657787eadee3\">Organization</a></p><p><b>facility</b>: <a href=\"Bundle-CoverageEligibilityResponseBundle-benefits-example-01.html#urn-uuid-2ce7ebf4-6fe4-44e9-8709-1a935e48f2ef\">Location</a></p><h3>Insurances</h3><table class=\"grid\"><tr><td style=\"display: none\">-</td><td><b>Focal</b></td><td><b>Coverage</b></td></tr><tr><td style=\"display: none\">*</td><td>true</td><td><a href=\"Bundle-CoverageEligibilityResponseBundle-benefits-example-01.html#urn-uuid-1c3642a2-2d2c-4812-8736-67c74862955a\">Coverage</a></td></tr></table><blockquote><p><b>item</b></p><p><b>productOrService</b>: <span title=\"Codes:{http://snomed.info/sct 768839008}\">Consultant</span></p><h3>Diagnoses</h3><table class=\"grid\"><tr><td style=\"display: none\">-</td><td><b>Diagnosis[x]</b></td></tr><tr><td style=\"display: none\">*</td><td><span title=\"Codes:{http://hl7.org/fhir/sid/icd-10 E11.9}\">Type 2 diabetes mellitus : Without complications</span></td></tr></table></blockquote><blockquote><p><b>item</b></p><p><b>productOrService</b>: <span title=\"Codes:{http://snomed.info/sct 765507008}\">Metformin hydrochloride 500 mg prolonged-release oral tablet</span></p><h3>Diagnoses</h3><table class=\"grid\"><tr><td style=\"display: none\">-</td><td><b>Diagnosis[x]</b></td></tr><tr><td style=\"display: none\">*</td><td><span title=\"Codes:{http://hl7.org/fhir/sid/icd-10 E11.9}\">Type 2 diabetes mellitus : Without complications</span></td></tr></table></blockquote></div>"
      },
      "identifier" : [{
        "value" : "7612345"
      }],
      "status" : "active",
      "priority" : {
        "coding" : [{
          "system" : "http://terminology.hl7.org/CodeSystem/processpriority",
          "code" : "normal",
          "display" : "Normal"
        }]
      },
      "purpose" : ["benefits"],
      "patient" : {
        "reference" : "urn:uuid:37dbfdfb-cc6e-4cb5-86e9-6151679082e2",
        "display" : "Patient"
      },
      "created" : "2025-03-07T11:01:00+05:00",
      "enterer" : {
        "reference" : "urn:uuid:752681ee-5db5-4cff-b10c-f9d6f69fe014",
        "display" : "Practitioner"
      },
      "provider" : {
        "reference" : "urn:uuid:0e17029b-e167-4473-9679-4b9052a8eca8",
        "display" : "Organization"
      },
      "insurer" : {
        "reference" : "urn:uuid:01806af2-daf1-4473-a31b-657787eadee3",
        "display" : "Organization"
      },
      "facility" : {
        "reference" : "urn:uuid:2ce7ebf4-6fe4-44e9-8709-1a935e48f2ef",
        "display" : "Location"
      },
      "insurance" : [{
        "focal" : true,
        "coverage" : {
          "reference" : "urn:uuid:1c3642a2-2d2c-4812-8736-67c74862955a",
          "display" : "Coverage"
        }
      }],
      "item" : [{
        "productOrService" : {
          "coding" : [{
            "system" : "http://snomed.info/sct",
            "code" : "768839008",
            "display" : "Consultant"
          }]
        },
        "diagnosis" : [{
          "diagnosisCodeableConcept" : {
            "coding" : [{
              "system" : "http://hl7.org/fhir/sid/icd-10",
              "code" : "E11.9",
              "display" : "Type 2 diabetes mellitus : Without complications"
            }]
          }
        }]
      },
      {
        "productOrService" : {
          "coding" : [{
            "system" : "http://snomed.info/sct",
            "code" : "765507008",
            "display" : "Metformin hydrochloride 500 mg prolonged-release oral tablet"
          }]
        },
        "diagnosis" : [{
          "diagnosisCodeableConcept" : {
            "coding" : [{
              "system" : "http://hl7.org/fhir/sid/icd-10",
              "code" : "E11.9",
              "display" : "Type 2 diabetes mellitus : Without complications"
            }]
          }
        }]
      }]
    }
  },
  {
    "fullUrl" : "urn:uuid:01806af2-daf1-4473-a31b-657787eadee3",
    "resource" : {
      "resourceType" : "Organization",
      "id" : "01806af2-daf1-4473-a31b-657787eadee3",
      "meta" : {
        "profile" : ["https://nrces.in/ndhm/fhir/r4/StructureDefinition/Organization"]
      },
      "text" : {
        "status" : "generated",
        "div" : "<div xmlns=\"http://www.w3.org/1999/xhtml\"><a name=\"Organization_01806af2-daf1-4473-a31b-657787eadee3\"> </a><p class=\"res-header-id\"><b>Generated Narrative: Organization 01806af2-daf1-4473-a31b-657787eadee3</b></p><a name=\"01806af2-daf1-4473-a31b-657787eadee3\"> </a><a name=\"hc01806af2-daf1-4473-a31b-657787eadee3\"> </a><a name=\"01806af2-daf1-4473-a31b-657787eadee3-hi-IN\"> </a><p><b>identifier</b>: Registry of Hospitals in Network of Insurance (ROHINI) ID/4567878</p><p><b>type</b>: <span title=\"Codes:{http://terminology.hl7.org/CodeSystem/organization-type ins}\">Insurance Company</span></p><p><b>name</b>: XYZ Insurance Co. Ltd.</p><p><b>telecom</b>: <a href=\"tel:+9124326341234\">+91 243 2634 1234</a>, <a href=\"mailto:contact@xyz.org\">contact@xyz.org</a></p></div>"
      },
      "identifier" : [{
        "type" : {
          "coding" : [{
            "system" : "https://nrces.in/ndhm/fhir/r4/CodeSystem/ndhm-identifier-type-code",
            "code" : "ROHINI",
            "display" : "Registry of Hospitals in Network of Insurance (ROHINI) ID"
          }]
        },
        "system" : "https://rohini.iib.gov.in/",
        "value" : "4567878"
      }],
      "type" : [{
        "coding" : [{
          "system" : "http://terminology.hl7.org/CodeSystem/organization-type",
          "code" : "ins",
          "display" : "Insurance Company"
        }]
      }],
      "name" : "XYZ Insurance Co. Ltd.",
      "telecom" : [{
        "system" : "phone",
        "value" : "+91 243 2634 1234",
        "use" : "work"
      },
      {
        "system" : "email",
        "value" : "contact@xyz.org",
        "use" : "work"
      }]
    }
  },
  {
    "fullUrl" : "urn:uuid:0e17029b-e167-4473-9679-4b9052a8eca8",
    "resource" : {
      "resourceType" : "Organization",
      "id" : "0e17029b-e167-4473-9679-4b9052a8eca8",
      "meta" : {
        "profile" : ["https://nrces.in/ndhm/fhir/r4/StructureDefinition/Organization"]
      },
      "text" : {
        "status" : "generated",
        "div" : "<div xmlns=\"http://www.w3.org/1999/xhtml\"><a name=\"Organization_0e17029b-e167-4473-9679-4b9052a8eca8\"> </a><p class=\"res-header-id\"><b>Generated Narrative: Organization 0e17029b-e167-4473-9679-4b9052a8eca8</b></p><a name=\"0e17029b-e167-4473-9679-4b9052a8eca8\"> </a><a name=\"hc0e17029b-e167-4473-9679-4b9052a8eca8\"> </a><a name=\"0e17029b-e167-4473-9679-4b9052a8eca8-hi-IN\"> </a><p><b>identifier</b>: Provider number/1234567890</p><p><b>type</b>: <span title=\"Codes:{http://terminology.hl7.org/CodeSystem/organization-type prov}\">Healthcare Provider</span></p><p><b>name</b>: XYZ Hospital Co. Ltd.</p><p><b>telecom</b>: <a href=\"tel:+9124326341278\">+91 243 2634 1278</a>, <a href=\"mailto:contact@xyz.org\">contact@xyz.org</a></p></div>"
      },
      "identifier" : [{
        "type" : {
          "coding" : [{
            "system" : "http://terminology.hl7.org/CodeSystem/v2-0203",
            "code" : "PRN",
            "display" : "Provider number"
          }]
        },
        "system" : "https://facility.ndhm.gov.in",
        "value" : "1234567890"
      }],
      "type" : [{
        "coding" : [{
          "system" : "http://terminology.hl7.org/CodeSystem/organization-type",
          "code" : "prov",
          "display" : "Healthcare Provider"
        }]
      }],
      "name" : "XYZ Hospital Co. Ltd.",
      "telecom" : [{
        "system" : "phone",
        "value" : "+91 243 2634 1278",
        "use" : "work"
      },
      {
        "system" : "email",
        "value" : "contact@xyz.org",
        "use" : "work"
      }]
    }
  },
  {
    "fullUrl" : "urn:uuid:2ce7ebf4-6fe4-44e9-8709-1a935e48f2ef",
    "resource" : {
      "resourceType" : "Location",
      "id" : "2ce7ebf4-6fe4-44e9-8709-1a935e48f2ef",
      "text" : {
        "status" : "generated",
        "div" : "<div xmlns=\"http://www.w3.org/1999/xhtml\"><a name=\"Location_2ce7ebf4-6fe4-44e9-8709-1a935e48f2ef\"> </a><p class=\"res-header-id\"><b>Generated Narrative: Location 2ce7ebf4-6fe4-44e9-8709-1a935e48f2ef</b></p><a name=\"2ce7ebf4-6fe4-44e9-8709-1a935e48f2ef\"> </a><a name=\"hc2ce7ebf4-6fe4-44e9-8709-1a935e48f2ef\"> </a><a name=\"2ce7ebf4-6fe4-44e9-8709-1a935e48f2ef-hi-IN\"> </a><p><b>identifier</b>: B1-S.F2</p><p><b>status</b>: Active</p><p><b>name</b>: South Wing, second floor</p><p><b>alias</b>: IndiaFirst Life Insurance Co. Ltd., South Wing, second floor</p><p><b>description</b>: Second floor of the Old South Wing, formerly in use by Psychiatry</p><p><b>mode</b>: Instance</p><p><b>telecom</b>: ph: 2328(Work), fax: 2329(Work), <a href=\"http://sampleorg.com/southwing\">http://sampleorg.com/southwing</a></p><p><b>address</b>: 91, Building A Pune 451855 IND (work)</p><p><b>physicalType</b>: <span title=\"Codes:{http://terminology.hl7.org/CodeSystem/location-physical-type wi}\">Wing</span></p><h3>Positions</h3><table class=\"grid\"><tr><td style=\"display: none\">-</td><td><b>Longitude</b></td><td><b>Latitude</b></td><td><b>Altitude</b></td></tr><tr><td style=\"display: none\">*</td><td>-83.6945691</td><td>42.25475478</td><td>0</td></tr></table><p><b>managingOrganization</b>: <a href=\"Bundle-CoverageEligibilityResponseBundle-benefits-example-01.html#urn-uuid-0e17029b-e167-4473-9679-4b9052a8eca8\">Organization</a></p></div>"
      },
      "identifier" : [{
        "value" : "B1-S.F2"
      }],
      "status" : "active",
      "name" : "South Wing, second floor",
      "alias" : ["IndiaFirst Life Insurance Co. Ltd., South Wing, second floor"],
      "description" : "Second floor of the Old South Wing, formerly in use by Psychiatry",
      "mode" : "instance",
      "telecom" : [{
        "system" : "phone",
        "value" : "2328",
        "use" : "work"
      },
      {
        "system" : "fax",
        "value" : "2329",
        "use" : "work"
      },
      {
        "system" : "url",
        "value" : "http://sampleorg.com/southwing",
        "use" : "work"
      }],
      "address" : {
        "use" : "work",
        "line" : ["91, Building A"],
        "city" : "Pune",
        "postalCode" : "451855",
        "country" : "IND"
      },
      "physicalType" : {
        "coding" : [{
          "system" : "http://terminology.hl7.org/CodeSystem/location-physical-type",
          "code" : "wi",
          "display" : "Wing"
        }]
      },
      "position" : {
        "longitude" : -83.6945691,
        "latitude" : 42.25475478,
        "altitude" : 0
      },
      "managingOrganization" : {
        "reference" : "urn:uuid:0e17029b-e167-4473-9679-4b9052a8eca8",
        "display" : "Organization"
      }
    }
  },
  {
    "fullUrl" : "urn:uuid:1c3642a2-2d2c-4812-8736-67c74862955a",
    "resource" : {
      "resourceType" : "Coverage",
      "id" : "1c3642a2-2d2c-4812-8736-67c74862955a",
      "meta" : {
        "profile" : ["https://nrces.in/ndhm/fhir/r4/StructureDefinition/Coverage"]
      },
      "text" : {
        "status" : "generated",
        "div" : "<div xmlns=\"http://www.w3.org/1999/xhtml\"><a name=\"Coverage_1c3642a2-2d2c-4812-8736-67c74862955a\"> </a><p class=\"res-header-id\"><b>Generated Narrative: Coverage 1c3642a2-2d2c-4812-8736-67c74862955a</b></p><a name=\"1c3642a2-2d2c-4812-8736-67c74862955a\"> </a><a name=\"hc1c3642a2-2d2c-4812-8736-67c74862955a\"> </a><a name=\"1c3642a2-2d2c-4812-8736-67c74862955a-hi-IN\"> </a><p><b>identifier</b>: <code>https://xyzinsurance.in/policynumber/</code>/235037120</p><p><b>status</b>: Active</p><p><b>type</b>: <span title=\"Codes:{http://terminology.hl7.org/CodeSystem/v3-ActCode HIP}\">health insurance plan policy</span></p><p><b>subscriber</b>: <a href=\"Bundle-CoverageEligibilityResponseBundle-benefits-example-01.html#urn-uuid-37dbfdfb-cc6e-4cb5-86e9-6151679082e2\">Patient</a></p><p><b>subscriberId</b>: ABC123456BI007</p><p><b>beneficiary</b>: <a href=\"Bundle-CoverageEligibilityResponseBundle-benefits-example-01.html#urn-uuid-37dbfdfb-cc6e-4cb5-86e9-6151679082e2\">Patient</a></p><p><b>relationship</b>: <span title=\"Codes:{http://terminology.hl7.org/CodeSystem/subscriber-relationship self}\">Self</span></p><p><b>period</b>: ?? --&gt; 2026-03-17</p><p><b>payor</b>: <a href=\"Bundle-CoverageEligibilityResponseBundle-benefits-example-01.html#urn-uuid-01806af2-daf1-4473-a31b-657787eadee3\">Organization</a></p></div>"
      },
      "identifier" : [{
        "system" : "https://xyzinsurance.in/policynumber/",
        "value" : "235037120"
      }],
      "status" : "active",
      "type" : {
        "coding" : [{
          "system" : "http://terminology.hl7.org/CodeSystem/v3-ActCode",
          "code" : "HIP",
          "display" : "health insurance plan policy"
        }]
      },
      "subscriber" : {
        "reference" : "urn:uuid:37dbfdfb-cc6e-4cb5-86e9-6151679082e2",
        "display" : "Patient"
      },
      "subscriberId" : "ABC123456BI007",
      "beneficiary" : {
        "reference" : "urn:uuid:37dbfdfb-cc6e-4cb5-86e9-6151679082e2",
        "display" : "Patient"
      },
      "relationship" : {
        "coding" : [{
          "system" : "http://terminology.hl7.org/CodeSystem/subscriber-relationship",
          "code" : "self"
        }]
      },
      "period" : {
        "end" : "2026-03-17"
      },
      "payor" : [{
        "reference" : "urn:uuid:01806af2-daf1-4473-a31b-657787eadee3",
        "display" : "Organization"
      }]
    }
  }]
}