{"resourceType":"Bundle","id":"TaskBundleForCommunicationRequest-example-01","meta":{"profile":["https://nrces.in/ndhm/fhir/r4/StructureDefinition/TaskBundle"],"security":[{"system":"http://terminology.hl7.org/CodeSystem/v3-Confidentiality","code":"V","display":"very restricted"}]},"identifier":{"value":"bc3c6c57-2053-4d0e-ac40-139ccccff645"},"type":"collection","timestamp":"2025-09-07T15:32:26.605+05:30","entry":[{"fullUrl":"urn:uuid:8f21980f-bc1f-40b6-aceb-f0caa94fcfbc","resource":{"resourceType":"Task","id":"8f21980f-bc1f-40b6-aceb-f0caa94fcfbc","meta":{"profile":["https://nrces.in/ndhm/fhir/r4/StructureDefinition/Task"]},"text":{"status":"generated","div":"<div xmlns=\"http://www.w3.org/1999/xhtml\"><a name=\"Task_8f21980f-bc1f-40b6-aceb-f0caa94fcfbc\"> </a><p class=\"res-header-id\"><b>Generated Narrative: Task 8f21980f-bc1f-40b6-aceb-f0caa94fcfbc</b></p><a name=\"8f21980f-bc1f-40b6-aceb-f0caa94fcfbc\"> </a><a name=\"hc8f21980f-bc1f-40b6-aceb-f0caa94fcfbc\"> </a><a name=\"8f21980f-bc1f-40b6-aceb-f0caa94fcfbc-hi-IN\"> </a><p><b>status</b>: Requested</p><p><b>intent</b>: order</p><p><b>code</b>: <span title=\"Codes:{http://terminology.hl7.org/CodeSystem/financialtaskcode poll}\">Poll</span></p><p><b>description</b>: Please Provide the diagnosis report of the Patient for identifying the disease</p><p><b>authoredOn</b>: 2023-12-08 08:25:05+1000</p><p><b>requester</b>: <a href=\"Bundle-TaskBundleForCommunicationRequest-example-01.html#urn-uuid-0f312cc8-5d6c-4f6d-8d95-0f99df062d70\">Organization</a></p><p><b>owner</b>: <a href=\"Bundle-TaskBundleForCommunicationRequest-example-01.html#urn-uuid-9cba8230-b666-438b-811c-f70c5df8990e\">Organization</a></p><h3>Inputs</h3><table class=\"grid\"><tr><td style=\"display: none\">-</td><td><b>Type</b></td><td><b>Value[x]</b></td></tr><tr><td style=\"display: none\">*</td><td><span title=\"Codes:{http://terminology.hl7.org/CodeSystem/financialtaskinputtype include}\">Include</span></td><td><a href=\"Bundle-TaskBundleForCommunicationRequest-example-01.html#urn-uuid-08f1bb6f-c3f5-4578-b5e8-c042764e2477\">CommunicationRequest</a></td></tr></table></div>"},"status":"requested","intent":"order","code":{"coding":[{"system":"http://terminology.hl7.org/CodeSystem/financialtaskcode","code":"poll"}]},"description":"Please Provide the diagnosis report of the Patient for identifying the disease","authoredOn":"2023-12-08T08:25:05+10:00","requester":{"reference":"urn:uuid:0f312cc8-5d6c-4f6d-8d95-0f99df062d70","display":"Organization"},"owner":{"reference":"urn:uuid:9cba8230-b666-438b-811c-f70c5df8990e","display":"Organization"},"input":[{"type":{"coding":[{"system":"http://terminology.hl7.org/CodeSystem/financialtaskinputtype","code":"include"}]},"valueReference":{"reference":"urn:uuid:08f1bb6f-c3f5-4578-b5e8-c042764e2477","display":"CommunicationRequest"}}]}},{"fullUrl":"urn:uuid:08f1bb6f-c3f5-4578-b5e8-c042764e2477","resource":{"resourceType":"CommunicationRequest","id":"08f1bb6f-c3f5-4578-b5e8-c042764e2477","meta":{"profile":["https://nrces.in/ndhm/fhir/r4/StructureDefinition/CommunicationRequest"]},"text":{"status":"generated","div":"<div xmlns=\"http://www.w3.org/1999/xhtml\"><a name=\"CommunicationRequest_08f1bb6f-c3f5-4578-b5e8-c042764e2477\"> </a><p class=\"res-header-id\"><b>Generated Narrative: CommunicationRequest 08f1bb6f-c3f5-4578-b5e8-c042764e2477</b></p><a name=\"08f1bb6f-c3f5-4578-b5e8-c042764e2477\"> </a><a name=\"hc08f1bb6f-c3f5-4578-b5e8-c042764e2477\"> </a><a name=\"08f1bb6f-c3f5-4578-b5e8-c042764e2477-hi-IN\"> </a><p><b>identifier</b>: 4524657454</p><p><b>basedOn</b>: <a href=\"Bundle-TaskBundleForCommunicationRequest-example-01.html#urn-uuid-5638dd69-795d-4c30-a916-71467877be0c\">Claim-preauth</a></p><p><b>status</b>: Active</p><p><b>category</b>: <span title=\"Codes:{http://terminology.hl7.org/CodeSystem/communication-category alert}\">Alert</span></p><p><b>priority</b>: Routine</p><h3>Payloads</h3><table class=\"grid\"><tr><td style=\"display: none\">-</td><td><b>Content[x]</b></td></tr><tr><td style=\"display: none\">*</td><td>Please provide the Angeography report to support your Claim# 98765432.</td></tr></table><p><b>authoredOn</b>: 2025-03-07 08:25:05+1000</p><p><b>requester</b>: <a href=\"Bundle-TaskBundleForCommunicationRequest-example-01.html#urn-uuid-0f312cc8-5d6c-4f6d-8d95-0f99df062d70\">Organization</a></p><p><b>recipient</b>: <a href=\"Bundle-TaskBundleForCommunicationRequest-example-01.html#urn-uuid-9cba8230-b666-438b-811c-f70c5df8990e\">Organization</a></p><p><b>sender</b>: <a href=\"Bundle-TaskBundleForCommunicationRequest-example-01.html#urn-uuid-0f312cc8-5d6c-4f6d-8d95-0f99df062d70\">Organization</a></p></div>"},"identifier":[{"value":"4524657454"}],"basedOn":[{"reference":"urn:uuid:5638dd69-795d-4c30-a916-71467877be0c","display":"Claim-preauth"}],"status":"active","category":[{"coding":[{"system":"http://terminology.hl7.org/CodeSystem/communication-category","code":"alert"}]}],"priority":"routine","payload":[{"contentString":"Please provide the Angeography report to support your Claim# 98765432."}],"authoredOn":"2025-03-07T08:25:05+10:00","requester":{"reference":"urn:uuid:0f312cc8-5d6c-4f6d-8d95-0f99df062d70","display":"Organization"},"recipient":[{"reference":"urn:uuid:9cba8230-b666-438b-811c-f70c5df8990e","display":"Organization"}],"sender":{"reference":"urn:uuid:0f312cc8-5d6c-4f6d-8d95-0f99df062d70","display":"Organization"}}},{"fullUrl":"urn:uuid:5638dd69-795d-4c30-a916-71467877be0c","resource":{"resourceType":"Claim","id":"5638dd69-795d-4c30-a916-71467877be0c","meta":{"profile":["https://nrces.in/ndhm/fhir/r4/StructureDefinition/Claim"]},"text":{"status":"generated","div":"<div xmlns=\"http://www.w3.org/1999/xhtml\"><a name=\"Claim_5638dd69-795d-4c30-a916-71467877be0c\"> </a><p class=\"res-header-id\"><b>Generated Narrative: Claim 5638dd69-795d-4c30-a916-71467877be0c</b></p><a name=\"5638dd69-795d-4c30-a916-71467877be0c\"> </a><a name=\"hc5638dd69-795d-4c30-a916-71467877be0c\"> </a><a name=\"5638dd69-795d-4c30-a916-71467877be0c-hi-IN\"> </a><p><b>identifier</b>: 7612345, 98765432</p><p><b>status</b>: Active</p><p><b>type</b>: <span title=\"Codes:{http://snomed.info/sct 737481003}\">Inpatient care management (procedure)</span></p><p><b>use</b>: Preauthorization</p><p><b>patient</b>: <a href=\"Bundle-TaskBundleForCommunicationRequest-example-01.html#urn-uuid-5b80f8c0-45b1-4df5-a770-27eb36b21573\">Patient</a></p><p><b>billablePeriod</b>: 2025-03-07 11:01:00+0500 --&gt; 2025-04-07 11:01:00+0500</p><p><b>created</b>: 2023-12-11 11:01:00+0500</p><p><b>insurer</b>: <a href=\"Bundle-TaskBundleForCommunicationRequest-example-01.html#urn-uuid-0f312cc8-5d6c-4f6d-8d95-0f99df062d70\">Organization</a></p><p><b>provider</b>: <a href=\"Bundle-TaskBundleForCommunicationRequest-example-01.html#urn-uuid-9cba8230-b666-438b-811c-f70c5df8990e\">Organization</a></p><p><b>priority</b>: <span title=\"Codes:{http://terminology.hl7.org/CodeSystem/processpriority normal}\">Normal</span></p><h3>CareTeams</h3><table class=\"grid\"><tr><td style=\"display: none\">-</td><td><b>Sequence</b></td><td><b>Provider</b></td><td><b>Role</b></td><td><b>Qualification</b></td></tr><tr><td style=\"display: none\">*</td><td>1</td><td><a href=\"Bundle-TaskBundleForCommunicationRequest-example-01.html#urn-uuid-f35c3aa2-f39e-46b4-a277-1445445fb535\">Practitioner</a></td><td><span title=\"Codes:{http://snomed.info/sct 223366009}\">Healthcare professional (occupation)</span></td><td><span title=\"Codes:{http://snomed.info/sct 394658006}\">Clinical specialty (qualifier value)</span></td></tr></table><h3>Diagnoses</h3><table class=\"grid\"><tr><td style=\"display: none\">-</td><td><b>Sequence</b></td><td><b>Diagnosis[x]</b></td><td><b>Type</b></td></tr><tr><td style=\"display: none\">*</td><td>1</td><td><span title=\"Codes:{http://hl7.org/fhir/sid/icd-10 I46.9}\">Cardiac arrest, unspecified</span></td><td><span title=\"Codes:{http://snomed.info/sct 89100005}\">Final diagnosis (discharge) (contextual qualifier) (qualifier value)</span></td></tr></table><blockquote><p><b>procedure</b></p><p><b>sequence</b>: 1</p><p><b>procedure</b>: <span title=\"Codes:{http://snomed.info/sct 77343006}\">Angiography</span></p></blockquote><blockquote><p><b>procedure</b></p><p><b>sequence</b>: 2</p><p><b>procedure</b>: <span title=\"Codes:{http://snomed.info/sct 418285008}\">Angioplasty of blood vessel</span></p></blockquote><h3>Insurances</h3><table class=\"grid\"><tr><td style=\"display: none\">-</td><td><b>Sequence</b></td><td><b>Focal</b></td><td><b>Coverage</b></td></tr><tr><td style=\"display: none\">*</td><td>1</td><td>true</td><td><a href=\"Bundle-TaskBundleForCommunicationRequest-example-01.html#urn-uuid-889c648a-230f-4c50-bd19-cf72511147ec\">Coverage</a></td></tr></table><blockquote><p><b>item</b></p><p><b>sequence</b>: 1</p><p><b>careTeamSequence</b>: 1</p><p><b>productOrService</b>: <span title=\"Codes:{http://snomed.info/sct 77343006}\">Angiography</span></p><h3>UnitPrices</h3><table class=\"grid\"><tr><td style=\"display: none\">-</td><td><b>Value</b></td><td><b>Currency</b></td></tr><tr><td style=\"display: none\">*</td><td>10000</td><td>Indian rupee</td></tr></table><h3>Nets</h3><table class=\"grid\"><tr><td style=\"display: none\">-</td><td><b>Value</b></td><td><b>Currency</b></td></tr><tr><td style=\"display: none\">*</td><td>10000</td><td>Indian rupee</td></tr></table></blockquote><blockquote><p><b>item</b></p><p><b>sequence</b>: 2</p><p><b>careTeamSequence</b>: 1</p><p><b>productOrService</b>: <span title=\"Codes:{http://snomed.info/sct 418285008}\">Angioplasty of blood vessel</span></p><h3>UnitPrices</h3><table class=\"grid\"><tr><td style=\"display: none\">-</td><td><b>Value</b></td><td><b>Currency</b></td></tr><tr><td style=\"display: none\">*</td><td>40000</td><td>Indian rupee</td></tr></table><h3>Nets</h3><table class=\"grid\"><tr><td style=\"display: none\">-</td><td><b>Value</b></td><td><b>Currency</b></td></tr><tr><td style=\"display: none\">*</td><td>40000</td><td>Indian rupee</td></tr></table></blockquote><blockquote><p><b>item</b></p><p><b>sequence</b>: 3</p><p><b>careTeamSequence</b>: 1</p><p><b>productOrService</b>: <span title=\"Codes:{http://snomed.info/sct 309904001}\">Intensive care unit</span></p><h3>UnitPrices</h3><table class=\"grid\"><tr><td style=\"display: none\">-</td><td><b>Value</b></td><td><b>Currency</b></td></tr><tr><td style=\"display: none\">*</td><td>2000</td><td>Indian rupee</td></tr></table><h3>Nets</h3><table class=\"grid\"><tr><td style=\"display: none\">-</td><td><b>Value</b></td><td><b>Currency</b></td></tr><tr><td style=\"display: none\">*</td><td>20000</td><td>Indian rupee</td></tr></table></blockquote><h3>Totals</h3><table class=\"grid\"><tr><td style=\"display: none\">-</td><td><b>Value</b></td><td><b>Currency</b></td></tr><tr><td style=\"display: none\">*</td><td>70000</td><td>Indian rupee</td></tr></table></div>"},"identifier":[{"value":"7612345"},{"value":"98765432"}],"status":"active","type":{"coding":[{"system":"http://snomed.info/sct","code":"737481003","display":"Inpatient care management (procedure)"}]},"use":"preauthorization","patient":{"reference":"urn:uuid:5b80f8c0-45b1-4df5-a770-27eb36b21573","display":"Patient"},"billablePeriod":{"start":"2025-03-07T11:01:00+05:00","end":"2025-04-07T11:01:00+05:00"},"created":"2023-12-11T11:01:00+05:00","insurer":{"reference":"urn:uuid:0f312cc8-5d6c-4f6d-8d95-0f99df062d70","display":"Organization"},"provider":{"reference":"urn:uuid:9cba8230-b666-438b-811c-f70c5df8990e","display":"Organization"},"priority":{"coding":[{"system":"http://terminology.hl7.org/CodeSystem/processpriority","code":"normal"}]},"careTeam":[{"sequence":1,"provider":{"reference":"urn:uuid:f35c3aa2-f39e-46b4-a277-1445445fb535","display":"Practitioner"},"role":{"coding":[{"system":"http://snomed.info/sct","code":"223366009","display":"Healthcare professional (occupation)"}]},"qualification":{"coding":[{"system":"http://snomed.info/sct","code":"394658006","display":"Clinical specialty (qualifier value)"}]}}],"diagnosis":[{"sequence":1,"diagnosisCodeableConcept":{"coding":[{"system":"http://hl7.org/fhir/sid/icd-10","code":"I46.9","display":"Cardiac arrest, unspecified"}]},"type":[{"coding":[{"system":"http://snomed.info/sct","code":"89100005","display":"Final diagnosis (discharge) (contextual qualifier) (qualifier value)"}]}]}],"procedure":[{"sequence":1,"procedureCodeableConcept":{"coding":[{"system":"http://snomed.info/sct","code":"77343006","display":"Angiography"}]}},{"sequence":2,"procedureCodeableConcept":{"coding":[{"system":"http://snomed.info/sct","code":"418285008","display":"Angioplasty of blood vessel"}]}}],"insurance":[{"sequence":1,"focal":true,"coverage":{"reference":"urn:uuid:889c648a-230f-4c50-bd19-cf72511147ec","display":"Coverage"}}],"item":[{"sequence":1,"careTeamSequence":[1],"productOrService":{"coding":[{"system":"http://snomed.info/sct","code":"77343006","display":"Angiography"}]},"unitPrice":{"value":10000,"currency":"INR"},"net":{"value":10000,"currency":"INR"}},{"sequence":2,"careTeamSequence":[1],"productOrService":{"coding":[{"system":"http://snomed.info/sct","code":"418285008","display":"Angioplasty of blood vessel"}]},"unitPrice":{"value":40000,"currency":"INR"},"net":{"value":40000,"currency":"INR"}},{"sequence":3,"careTeamSequence":[1],"productOrService":{"coding":[{"system":"http://snomed.info/sct","code":"309904001","display":"Intensive care unit"}]},"unitPrice":{"value":2000,"currency":"INR"},"net":{"value":20000,"currency":"INR"}}],"total":{"value":70000,"currency":"INR"}}},{"fullUrl":"urn:uuid:5b80f8c0-45b1-4df5-a770-27eb36b21573","resource":{"resourceType":"Patient","id":"5b80f8c0-45b1-4df5-a770-27eb36b21573","meta":{"profile":["https://nrces.in/ndhm/fhir/r4/StructureDefinition/Patient"]},"text":{"status":"generated","div":"<div xmlns=\"http://www.w3.org/1999/xhtml\"><a name=\"Patient_5b80f8c0-45b1-4df5-a770-27eb36b21573\"> </a><p class=\"res-header-id\"><b>Generated Narrative: Patient 5b80f8c0-45b1-4df5-a770-27eb36b21573</b></p><a name=\"5b80f8c0-45b1-4df5-a770-27eb36b21573\"> </a><a name=\"hc5b80f8c0-45b1-4df5-a770-27eb36b21573\"> </a><a name=\"5b80f8c0-45b1-4df5-a770-27eb36b21573-hi-IN\"> </a><p style=\"border: 1px #661aff solid; background-color: #e6e6ff; padding: 10px;\">Adarsh Agrawal Male, DoB: 1981-01-12 ( Adhaar number: 7225-4829-5255)</p><hr/><table class=\"grid\"><tr><td style=\"background-color: #f3f5da\" title=\"Ways to contact the Patient\">Contact Detail</td><td colspan=\"3\"><a href=\"tel:+919818512600\">+919818512600</a></td></tr></table></div>"},"identifier":[{"type":{"coding":[{"system":"https://nrces.in/ndhm/fhir/r4/CodeSystem/ndhm-identifier-type-code","code":"ADN","display":"Adhaar number"}]},"system":"https://uidai.gov.in/","value":"7225-4829-5255"}],"name":[{"text":"Adarsh Agrawal"}],"telecom":[{"system":"phone","value":"+919818512600","use":"home"}],"gender":"male","birthDate":"1981-01-12"}},{"fullUrl":"urn:uuid:0f312cc8-5d6c-4f6d-8d95-0f99df062d70","resource":{"resourceType":"Organization","id":"0f312cc8-5d6c-4f6d-8d95-0f99df062d70","meta":{"profile":["https://nrces.in/ndhm/fhir/r4/StructureDefinition/Organization"]},"text":{"status":"generated","div":"<div xmlns=\"http://www.w3.org/1999/xhtml\"><a name=\"Organization_0f312cc8-5d6c-4f6d-8d95-0f99df062d70\"> </a><p class=\"res-header-id\"><b>Generated Narrative: Organization 0f312cc8-5d6c-4f6d-8d95-0f99df062d70</b></p><a name=\"0f312cc8-5d6c-4f6d-8d95-0f99df062d70\"> </a><a name=\"hc0f312cc8-5d6c-4f6d-8d95-0f99df062d70\"> </a><a name=\"0f312cc8-5d6c-4f6d-8d95-0f99df062d70-hi-IN\"> </a><p><b>identifier</b>: Registry of Hospitals in Network of Insurance (ROHINI) ID/4567878</p><p><b>type</b>: <span title=\"Codes:{http://terminology.hl7.org/CodeSystem/organization-type ins}\">Insurance Company</span></p><p><b>name</b>: XYZ Insurance Co. Ltd.</p><p><b>telecom</b>: <a href=\"tel:+9124326341234\">+91 243 2634 1234</a>, <a href=\"mailto:contact@xyz.org\">contact@xyz.org</a></p></div>"},"identifier":[{"type":{"coding":[{"system":"https://nrces.in/ndhm/fhir/r4/CodeSystem/ndhm-identifier-type-code","code":"ROHINI","display":"Registry of Hospitals in Network of Insurance (ROHINI) ID"}]},"system":"https://rohini.iib.gov.in/","value":"4567878"}],"type":[{"coding":[{"system":"http://terminology.hl7.org/CodeSystem/organization-type","code":"ins","display":"Insurance Company"}]}],"name":"XYZ Insurance Co. Ltd.","telecom":[{"system":"phone","value":"+91 243 2634 1234","use":"work"},{"system":"email","value":"contact@xyz.org","use":"work"}]}},{"fullUrl":"urn:uuid:9cba8230-b666-438b-811c-f70c5df8990e","resource":{"resourceType":"Organization","id":"9cba8230-b666-438b-811c-f70c5df8990e","meta":{"profile":["https://nrces.in/ndhm/fhir/r4/StructureDefinition/Organization"]},"text":{"status":"generated","div":"<div xmlns=\"http://www.w3.org/1999/xhtml\"><a name=\"Organization_9cba8230-b666-438b-811c-f70c5df8990e\"> </a><p class=\"res-header-id\"><b>Generated Narrative: Organization 9cba8230-b666-438b-811c-f70c5df8990e</b></p><a name=\"9cba8230-b666-438b-811c-f70c5df8990e\"> </a><a name=\"hc9cba8230-b666-438b-811c-f70c5df8990e\"> </a><a name=\"9cba8230-b666-438b-811c-f70c5df8990e-hi-IN\"> </a><p><b>identifier</b>: Provider number/45675454</p><p><b>type</b>: <span title=\"Codes:{http://terminology.hl7.org/CodeSystem/organization-type prov}\">Healthcare Provider</span></p><p><b>name</b>: XYZ Hospital Co. Ltd.</p><p><b>telecom</b>: <a href=\"tel:+9124326341278\">+91 243 2634 1278</a>, <a href=\"mailto:contact@xyz.org\">contact@xyz.org</a></p></div>"},"identifier":[{"type":{"coding":[{"system":"http://terminology.hl7.org/CodeSystem/v2-0203","code":"PRN","display":"Provider number"}]},"system":"https://facility.ndhm.gov.in","value":"45675454"}],"type":[{"coding":[{"system":"http://terminology.hl7.org/CodeSystem/organization-type","code":"prov","display":"Healthcare Provider"}]}],"name":"XYZ Hospital Co. Ltd.","telecom":[{"system":"phone","value":"+91 243 2634 1278","use":"work"},{"system":"email","value":"contact@xyz.org","use":"work"}]}},{"fullUrl":"urn:uuid:f35c3aa2-f39e-46b4-a277-1445445fb535","resource":{"resourceType":"Practitioner","id":"f35c3aa2-f39e-46b4-a277-1445445fb535","meta":{"profile":["https://nrces.in/ndhm/fhir/r4/StructureDefinition/Practitioner"]},"text":{"status":"generated","div":"<div xmlns=\"http://www.w3.org/1999/xhtml\"><a name=\"Practitioner_f35c3aa2-f39e-46b4-a277-1445445fb535\"> </a><p class=\"res-header-id\"><b>Generated Narrative: Practitioner f35c3aa2-f39e-46b4-a277-1445445fb535</b></p><a name=\"f35c3aa2-f39e-46b4-a277-1445445fb535\"> </a><a name=\"hcf35c3aa2-f39e-46b4-a277-1445445fb535\"> </a><a name=\"f35c3aa2-f39e-46b4-a277-1445445fb535-hi-IN\"> </a><p><b>identifier</b>: Medical License number/21-1521-3828-3227</p><p><b>name</b>: Dr. Aayush Agrawal</p></div>"},"identifier":[{"type":{"coding":[{"system":"http://terminology.hl7.org/CodeSystem/v2-0203","code":"MD","display":"Medical License number"}]},"system":"https://doctor.ndhm.gov.in","value":"21-1521-3828-3227"}],"name":[{"text":"Dr. Aayush Agrawal"}]}},{"fullUrl":"urn:uuid:889c648a-230f-4c50-bd19-cf72511147ec","resource":{"resourceType":"Coverage","id":"889c648a-230f-4c50-bd19-cf72511147ec","meta":{"profile":["https://nrces.in/ndhm/fhir/r4/StructureDefinition/Coverage"]},"text":{"status":"generated","div":"<div xmlns=\"http://www.w3.org/1999/xhtml\"><a name=\"Coverage_889c648a-230f-4c50-bd19-cf72511147ec\"> </a><p class=\"res-header-id\"><b>Generated Narrative: Coverage 889c648a-230f-4c50-bd19-cf72511147ec</b></p><a name=\"889c648a-230f-4c50-bd19-cf72511147ec\"> </a><a name=\"hc889c648a-230f-4c50-bd19-cf72511147ec\"> </a><a name=\"889c648a-230f-4c50-bd19-cf72511147ec-hi-IN\"> </a><p><b>identifier</b>: <code>https://xyzinsurance.in/policynumber/</code>/235037120</p><p><b>status</b>: Active</p><p><b>type</b>: <span title=\"Codes:{http://terminology.hl7.org/CodeSystem/v3-ActCode HIP}\">health insurance plan policy</span></p><p><b>subscriber</b>: <a href=\"Bundle-TaskBundleForCommunicationRequest-example-01.html#urn-uuid-5b80f8c0-45b1-4df5-a770-27eb36b21573\">Patient</a></p><p><b>subscriberId</b>: ABC123456BI007</p><p><b>beneficiary</b>: <a href=\"Bundle-TaskBundleForCommunicationRequest-example-01.html#urn-uuid-5b80f8c0-45b1-4df5-a770-27eb36b21573\">Patient</a></p><p><b>relationship</b>: <span title=\"Codes:{http://terminology.hl7.org/CodeSystem/subscriber-relationship self}\">Self</span></p><p><b>period</b>: ?? --&gt; 2026-03-17</p><p><b>payor</b>: <a href=\"Bundle-TaskBundleForCommunicationRequest-example-01.html#urn-uuid-0f312cc8-5d6c-4f6d-8d95-0f99df062d70\">Organization</a></p></div>"},"identifier":[{"system":"https://xyzinsurance.in/policynumber/","value":"235037120"}],"status":"active","type":{"coding":[{"system":"http://terminology.hl7.org/CodeSystem/v3-ActCode","code":"HIP","display":"health insurance plan policy"}]},"subscriber":{"reference":"urn:uuid:5b80f8c0-45b1-4df5-a770-27eb36b21573","display":"Patient"},"subscriberId":"ABC123456BI007","beneficiary":{"reference":"urn:uuid:5b80f8c0-45b1-4df5-a770-27eb36b21573","display":"Patient"},"relationship":{"coding":[{"system":"http://terminology.hl7.org/CodeSystem/subscriber-relationship","code":"self"}]},"period":{"end":"2026-03-17"},"payor":[{"reference":"urn:uuid:0f312cc8-5d6c-4f6d-8d95-0f99df062d70","display":"Organization"}]}}]}