{"resourceType":"Bundle","id":"TaskBundleForReprocessResponse-example-01","meta":{"profile":["https://nrces.in/ndhm/fhir/r4/StructureDefinition/TaskBundle"],"security":[{"system":"http://terminology.hl7.org/CodeSystem/v3-Confidentiality","code":"V","display":"very restricted"}]},"identifier":{"value":"bc3c6c57-2053-4d0e-ac40-139ccccff645"},"type":"collection","timestamp":"2025-04-10T15:32:26.605+05:30","entry":[{"fullUrl":"urn:uuid:8e00805b-d62a-41df-bddc-f0f9222e6d11","resource":{"resourceType":"Task","id":"8e00805b-d62a-41df-bddc-f0f9222e6d11","meta":{"profile":["https://nrces.in/ndhm/fhir/r4/StructureDefinition/Task"]},"text":{"status":"generated","div":"<div xmlns=\"http://www.w3.org/1999/xhtml\"><a name=\"Task_8e00805b-d62a-41df-bddc-f0f9222e6d11\"> </a><p class=\"res-header-id\"><b>Generated Narrative: Task 8e00805b-d62a-41df-bddc-f0f9222e6d11</b></p><a name=\"8e00805b-d62a-41df-bddc-f0f9222e6d11\"> </a><a name=\"hc8e00805b-d62a-41df-bddc-f0f9222e6d11\"> </a><a name=\"8e00805b-d62a-41df-bddc-f0f9222e6d11-hi-IN\"> </a><p><b>status</b>: Completed</p><p><b>intent</b>: order</p><p><b>code</b>: <span title=\"Codes:{http://hl7.org/fhir/CodeSystem/task-code approve}\">Activate/approve the focal resource</span></p><p><b>description</b>: Start processing of Claim No. - 761234674365</p><p><b>authoredOn</b>: 2025-04-10 08:25:05+1000</p><p><b>requester</b>: <a href=\"Bundle-TaskBundleForReprocessResponse-example-01.html#urn-uuid-58affc0f-0c11-48aa-a354-e904638f95d0\">Organization</a></p><p><b>owner</b>: <a href=\"Bundle-TaskBundleForReprocessResponse-example-01.html#urn-uuid-3c116cfa-b008-4a44-a00d-8011a23b986a\">Organization</a></p><h3>Outputs</h3><table class=\"grid\"><tr><td style=\"display: none\">-</td><td><b>Type</b></td><td><b>Value[x]</b></td></tr><tr><td style=\"display: none\">*</td><td><span title=\"Codes:{https://nrces.in/ndhm/fhir/r4/CodeSystem/ndhm-task-output-type include}\">Include</span></td><td><a href=\"Bundle-TaskBundleForReprocessResponse-example-01.html#urn-uuid-b6db98a7-186b-4558-a2b3-cddc25be6f46\">ClaimResponse</a></td></tr></table></div>"},"status":"completed","intent":"order","code":{"coding":[{"system":"http://hl7.org/fhir/CodeSystem/task-code","code":"approve"}]},"description":"Start processing of Claim No. - 761234674365","authoredOn":"2025-04-10T08:25:05+10:00","requester":{"reference":"urn:uuid:58affc0f-0c11-48aa-a354-e904638f95d0","display":"Organization"},"owner":{"reference":"urn:uuid:3c116cfa-b008-4a44-a00d-8011a23b986a","display":"Organization"},"output":[{"type":{"coding":[{"system":"https://nrces.in/ndhm/fhir/r4/CodeSystem/ndhm-task-output-type","code":"include"}]},"valueReference":{"reference":"urn:uuid:b6db98a7-186b-4558-a2b3-cddc25be6f46","display":"ClaimResponse"}}]}},{"fullUrl":"urn:uuid:b6db98a7-186b-4558-a2b3-cddc25be6f46","resource":{"resourceType":"ClaimResponse","id":"b6db98a7-186b-4558-a2b3-cddc25be6f46","meta":{"profile":["https://nrces.in/ndhm/fhir/r4/StructureDefinition/ClaimResponse"]},"text":{"status":"generated","div":"<div xmlns=\"http://www.w3.org/1999/xhtml\"><a name=\"ClaimResponse_b6db98a7-186b-4558-a2b3-cddc25be6f46\"> </a><p class=\"res-header-id\"><b>Generated Narrative: ClaimResponse b6db98a7-186b-4558-a2b3-cddc25be6f46</b></p><a name=\"b6db98a7-186b-4558-a2b3-cddc25be6f46\"> </a><a name=\"hcb6db98a7-186b-4558-a2b3-cddc25be6f46\"> </a><a name=\"b6db98a7-186b-4558-a2b3-cddc25be6f46-hi-IN\"> </a><p><b>status</b>: Active</p><p><b>type</b>: <span title=\"Codes:{http://snomed.info/sct 737481003}\">Inpatient care management (procedure)</span></p><p><b>use</b>: Claim</p><p><b>patient</b>: <a href=\"Bundle-TaskBundleForReprocessResponse-example-01.html#urn-uuid-e73177ed-0eeb-48dd-9a1f-193f0eef82b5\">Patient</a></p><p><b>created</b>: 2025-04-10 15:32:26+0530</p><p><b>insurer</b>: <a href=\"Bundle-TaskBundleForReprocessResponse-example-01.html#urn-uuid-58affc0f-0c11-48aa-a354-e904638f95d0\">Organization</a></p><p><b>requestor</b>: <a href=\"Bundle-TaskBundleForReprocessResponse-example-01.html#urn-uuid-3c116cfa-b008-4a44-a00d-8011a23b986a\">Organization</a></p><p><b>request</b>: <a href=\"Bundle-TaskBundleForReprocessResponse-example-01.html#urn-uuid-be98cdf0-e1c1-485f-be46-7b9ee6fc5a72\">Claim-settlement</a></p><p><b>outcome</b>: Processing Complete</p><p><b>disposition</b>: The claim will be processed within 30 days of this notice.</p><p><b>preAuthRef</b>: 96785763</p><blockquote><p><b>item</b></p><p><b>itemSequence</b>: 1</p><blockquote><p><b>adjudication</b></p><p><b>category</b>: <span title=\"Codes:{http://terminology.hl7.org/CodeSystem/adjudication submitted}\">Submitted Amount</span></p><h3>Amounts</h3><table class=\"grid\"><tr><td style=\"display: none\">-</td><td><b>Value</b></td><td><b>Currency</b></td></tr><tr><td style=\"display: none\">*</td><td>20000</td><td>Indian rupee</td></tr></table></blockquote><blockquote><p><b>adjudication</b></p><p><b>category</b>: <span title=\"Codes:{http://terminology.hl7.org/CodeSystem/adjudication eligpercent}\">Eligible %</span></p><p><b>reason</b>: <span title=\"Codes:{https://nrces.in/ndhm/fhir/r4/CodeSystem/ndhm-adjudication-reason covered}\">Product or Service requested is covered by the policy.</span></p><h3>Amounts</h3><table class=\"grid\"><tr><td style=\"display: none\">-</td><td><b>Value</b></td><td><b>Currency</b></td></tr><tr><td style=\"display: none\">*</td><td>20000</td><td>Indian rupee</td></tr></table></blockquote></blockquote><blockquote><p><b>item</b></p><p><b>itemSequence</b>: 2</p><blockquote><p><b>adjudication</b></p><p><b>category</b>: <span title=\"Codes:{http://terminology.hl7.org/CodeSystem/adjudication submitted}\">Submitted Amount</span></p><h3>Amounts</h3><table class=\"grid\"><tr><td style=\"display: none\">-</td><td><b>Value</b></td><td><b>Currency</b></td></tr><tr><td style=\"display: none\">*</td><td>50000</td><td>Indian rupee</td></tr></table></blockquote><blockquote><p><b>adjudication</b></p><p><b>category</b>: <span title=\"Codes:{http://terminology.hl7.org/CodeSystem/adjudication eligpercent}\">Eligible %</span></p><p><b>reason</b>: <span title=\"Codes:{https://nrces.in/ndhm/fhir/r4/CodeSystem/ndhm-adjudication-reason covered}\">Product or Service requested is covered by the policy.</span></p><h3>Amounts</h3><table class=\"grid\"><tr><td style=\"display: none\">-</td><td><b>Value</b></td><td><b>Currency</b></td></tr><tr><td style=\"display: none\">*</td><td>50000</td><td>Indian rupee</td></tr></table></blockquote></blockquote><blockquote><p><b>item</b></p><p><b>itemSequence</b>: 3</p><blockquote><p><b>adjudication</b></p><p><b>category</b>: <span title=\"Codes:{http://terminology.hl7.org/CodeSystem/adjudication submitted}\">Submitted Amount</span></p><h3>Amounts</h3><table class=\"grid\"><tr><td style=\"display: none\">-</td><td><b>Value</b></td><td><b>Currency</b></td></tr><tr><td style=\"display: none\">*</td><td>20000</td><td>Indian rupee</td></tr></table></blockquote><blockquote><p><b>adjudication</b></p><p><b>category</b>: <span title=\"Codes:{http://terminology.hl7.org/CodeSystem/adjudication eligpercent}\">Eligible %</span></p><p><b>reason</b>: <span title=\"Codes:{https://nrces.in/ndhm/fhir/r4/CodeSystem/ndhm-adjudication-reason covered}\">Product or Service requested is covered by the policy.</span></p><h3>Amounts</h3><table class=\"grid\"><tr><td style=\"display: none\">-</td><td><b>Value</b></td><td><b>Currency</b></td></tr><tr><td style=\"display: none\">*</td><td>20000</td><td>Indian rupee</td></tr></table></blockquote></blockquote><blockquote><p><b>total</b></p><p><b>category</b>: <span title=\"Codes:{http://terminology.hl7.org/CodeSystem/adjudication submitted}\">Submitted Amount</span></p><h3>Amounts</h3><table class=\"grid\"><tr><td style=\"display: none\">-</td><td><b>Value</b></td><td><b>Currency</b></td></tr><tr><td style=\"display: none\">*</td><td>90000</td><td>Indian rupee</td></tr></table></blockquote><blockquote><p><b>total</b></p><p><b>category</b>: <span title=\"Codes:{http://terminology.hl7.org/CodeSystem/adjudication eligpercent}\">Eligible %</span></p><h3>Amounts</h3><table class=\"grid\"><tr><td style=\"display: none\">-</td><td><b>Value</b></td><td><b>Currency</b></td></tr><tr><td style=\"display: none\">*</td><td>90000</td><td>Indian rupee</td></tr></table></blockquote><p><b>formCode</b>: <span title=\"Codes:{https://nrces.in/ndhm/fhir/r4/CodeSystem/ndhm-form-code claimapproval}\">Approval letter for claim settlement</span></p><h3>Forms</h3><table class=\"grid\"><tr><td style=\"display: none\">-</td><td><b>ContentType</b></td><td><b>Language</b></td><td><b>Data</b></td><td><b>Title</b></td></tr><tr><td style=\"display: none\">*</td><td>image/jpeg</td><td>English (Region=India)</td><td>(base64 data - 97,336 base64 chars)</td><td>claim Approval letter</td></tr></table><h3>Insurances</h3><table class=\"grid\"><tr><td style=\"display: none\">-</td><td><b>Sequence</b></td><td><b>Focal</b></td><td><b>Coverage</b></td></tr><tr><td style=\"display: none\">*</td><td>1</td><td>true</td><td><a href=\"Bundle-TaskBundleForReprocessResponse-example-01.html#urn-uuid-f4478db8-8996-4855-96c8-546dcfc364cb\">Bundle: identifier = bc3c6c57-2053-4d0e-ac40-139ccccff645; type = collection; timestamp = 2025-04-10 15:32:26+0530</a></td></tr></table></div>"},"status":"active","type":{"coding":[{"system":"http://snomed.info/sct","code":"737481003","display":"Inpatient care management (procedure)"}]},"use":"claim","patient":{"reference":"urn:uuid:e73177ed-0eeb-48dd-9a1f-193f0eef82b5","display":"Patient"},"created":"2025-04-10T15:32:26.605+05:30","insurer":{"reference":"urn:uuid:58affc0f-0c11-48aa-a354-e904638f95d0","display":"Organization"},"requestor":{"reference":"urn:uuid:3c116cfa-b008-4a44-a00d-8011a23b986a","display":"Organization"},"request":{"reference":"urn:uuid:be98cdf0-e1c1-485f-be46-7b9ee6fc5a72","display":"Claim-settlement"},"outcome":"complete","disposition":"The claim will be processed within 30 days of this notice.","preAuthRef":"96785763","item":[{"itemSequence":1,"adjudication":[{"category":{"coding":[{"system":"http://terminology.hl7.org/CodeSystem/adjudication","code":"submitted","display":"Submitted Amount"}]},"amount":{"value":20000,"currency":"INR"}},{"category":{"coding":[{"system":"http://terminology.hl7.org/CodeSystem/adjudication","code":"eligpercent","display":"Eligible %"}]},"reason":{"coding":[{"system":"https://nrces.in/ndhm/fhir/r4/CodeSystem/ndhm-adjudication-reason","code":"covered","display":"Product or Service requested is covered by the policy."}]},"amount":{"value":20000,"currency":"INR"}}]},{"itemSequence":2,"adjudication":[{"category":{"coding":[{"system":"http://terminology.hl7.org/CodeSystem/adjudication","code":"submitted","display":"Submitted Amount"}]},"amount":{"value":50000,"currency":"INR"}},{"category":{"coding":[{"system":"http://terminology.hl7.org/CodeSystem/adjudication","code":"eligpercent","display":"Eligible %"}]},"reason":{"coding":[{"system":"https://nrces.in/ndhm/fhir/r4/CodeSystem/ndhm-adjudication-reason","code":"covered","display":"Product or Service requested is covered by the policy."}]},"amount":{"value":50000,"currency":"INR"}}]},{"itemSequence":3,"adjudication":[{"category":{"coding":[{"system":"http://terminology.hl7.org/CodeSystem/adjudication","code":"submitted","display":"Submitted Amount"}]},"amount":{"value":20000,"currency":"INR"}},{"category":{"coding":[{"system":"http://terminology.hl7.org/CodeSystem/adjudication","code":"eligpercent","display":"Eligible %"}]},"reason":{"coding":[{"system":"https://nrces.in/ndhm/fhir/r4/CodeSystem/ndhm-adjudication-reason","code":"covered","display":"Product or Service requested is covered by the policy."}]},"amount":{"value":20000,"currency":"INR"}}]}],"total":[{"category":{"coding":[{"system":"http://terminology.hl7.org/CodeSystem/adjudication","code":"submitted"}]},"amount":{"value":90000,"currency":"INR"}},{"category":{"coding":[{"system":"http://terminology.hl7.org/CodeSystem/adjudication","code":"eligpercent","display":"Eligible %"}]},"amount":{"value":90000,"currency":"INR"}}],"formCode":{"coding":[{"system":"https://nrces.in/ndhm/fhir/r4/CodeSystem/ndhm-form-code","code":"claimapproval","display":"Approval letter for claim settlement"}]},"form":{"contentType":"image/jpeg","language":"en-IN","data":"","title":"claim Approval letter"},"insurance":[{"sequence":1,"focal":true,"coverage":{"reference":"urn:uuid:f4478db8-8996-4855-96c8-546dcfc364cb"}}]}},{"fullUrl":"urn:uuid:be98cdf0-e1c1-485f-be46-7b9ee6fc5a72","resource":{"resourceType":"Claim","id":"be98cdf0-e1c1-485f-be46-7b9ee6fc5a72","meta":{"profile":["https://nrces.in/ndhm/fhir/r4/StructureDefinition/Claim"]},"text":{"status":"generated","div":"<div xmlns=\"http://www.w3.org/1999/xhtml\"><a name=\"Claim_be98cdf0-e1c1-485f-be46-7b9ee6fc5a72\"> </a><p class=\"res-header-id\"><b>Generated Narrative: Claim be98cdf0-e1c1-485f-be46-7b9ee6fc5a72</b></p><a name=\"be98cdf0-e1c1-485f-be46-7b9ee6fc5a72\"> </a><a name=\"hcbe98cdf0-e1c1-485f-be46-7b9ee6fc5a72\"> </a><a name=\"be98cdf0-e1c1-485f-be46-7b9ee6fc5a72-hi-IN\"> </a><p><b>identifier</b>: 761234674365, 344536545</p><p><b>status</b>: Active</p><p><b>type</b>: <span title=\"Codes:{http://snomed.info/sct 737481003}\">Inpatient care management (procedure)</span></p><p><b>use</b>: Claim</p><p><b>patient</b>: <a href=\"Bundle-TaskBundleForReprocessResponse-example-01.html#urn-uuid-e73177ed-0eeb-48dd-9a1f-193f0eef82b5\">Patient</a></p><p><b>billablePeriod</b>: 2025-03-07 11:01:00+0500 --&gt; 2025-04-07 11:01:00+0500</p><p><b>created</b>: 2025-04-07 11:01:00+0500</p><p><b>insurer</b>: <a href=\"Bundle-TaskBundleForReprocessResponse-example-01.html#urn-uuid-58affc0f-0c11-48aa-a354-e904638f95d0\">Organization</a></p><p><b>provider</b>: <a href=\"Bundle-TaskBundleForReprocessResponse-example-01.html#urn-uuid-3c116cfa-b008-4a44-a00d-8011a23b986a\">Organization</a></p><p><b>priority</b>: <span title=\"Codes:{http://terminology.hl7.org/CodeSystem/processpriority normal}\">Normal</span></p><h3>Relateds</h3><table class=\"grid\"><tr><td style=\"display: none\">-</td><td><b>Claim</b></td><td><b>Relationship</b></td></tr><tr><td style=\"display: none\">*</td><td><a href=\"Bundle-TaskBundleForReprocessResponse-example-01.html#urn-uuid-a9def26a-82e6-4e9b-bad9-3a911dabd1c6\">Claim-enhancement</a></td><td><span title=\"Codes:{https://nrces.in/ndhm/fhir/r4/CodeSystem/ndhm-related-claim-relationship-code settlement}\">Settlement</span></td></tr></table><h3>CareTeams</h3><table class=\"grid\"><tr><td style=\"display: none\">-</td><td><b>Sequence</b></td><td><b>Provider</b></td><td><b>Role</b></td><td><b>Qualification</b></td></tr><tr><td style=\"display: none\">*</td><td>1</td><td><a href=\"Bundle-TaskBundleForReprocessResponse-example-01.html#urn-uuid-18a04177-02de-4e71-b561-68b86974b256\">Practitioner</a></td><td><span title=\"Codes:{http://snomed.info/sct 223366009}\">Healthcare professional (occupation)</span></td><td><span title=\"Codes:{http://snomed.info/sct 394658006}\">Clinical specialty (qualifier value)</span></td></tr></table><blockquote><p><b>supportingInfo</b></p><p><b>sequence</b>: 1</p><p><b>category</b>: <span title=\"Codes:{https://nrces.in/ndhm/fhir/r4/CodeSystem/ndhm-supportinginfo-category INV}\">Document Type - Investigation</span></p><p><b>code</b>: <span title=\"Codes:{http://snomed.info/sct 77343006}\">Angiography</span></p><p><b>value</b>: application/pdf: </p></blockquote><blockquote><p><b>supportingInfo</b></p><p><b>sequence</b>: 2</p><p><b>category</b>: <span title=\"Codes:{https://nrces.in/ndhm/fhir/r4/CodeSystem/ndhm-supportinginfo-category INV}\">Document Type - Investigation</span></p><p><b>code</b>: <span title=\"Codes:{http://snomed.info/sct 77343006}\">Angiography</span></p><p><b>value</b>: application/pdf: </p></blockquote><h3>Diagnoses</h3><table class=\"grid\"><tr><td style=\"display: none\">-</td><td><b>Sequence</b></td><td><b>Diagnosis[x]</b></td><td><b>Type</b></td></tr><tr><td style=\"display: none\">*</td><td>1</td><td><span title=\"Codes:{http://hl7.org/fhir/sid/icd-10 I46.9}\">Cardiac arrest, unspecified</span></td><td><span title=\"Codes:{http://snomed.info/sct 89100005}\">Final diagnosis (discharge) (contextual qualifier) (qualifier value)</span></td></tr></table><blockquote><p><b>procedure</b></p><p><b>sequence</b>: 1</p><p><b>procedure</b>: <span title=\"Codes:{http://snomed.info/sct 77343006}\">Angiography</span></p></blockquote><blockquote><p><b>procedure</b></p><p><b>sequence</b>: 2</p><p><b>procedure</b>: <span title=\"Codes:{http://snomed.info/sct 418285008}\">Angioplasty of blood vessel</span></p></blockquote><h3>Insurances</h3><table class=\"grid\"><tr><td style=\"display: none\">-</td><td><b>Sequence</b></td><td><b>Focal</b></td><td><b>Coverage</b></td><td><b>PreAuthRef</b></td></tr><tr><td style=\"display: none\">*</td><td>1</td><td>true</td><td><a href=\"Bundle-TaskBundleForReprocessResponse-example-01.html#urn-uuid-f4478db8-8996-4855-96c8-546dcfc364cb\">Coverage</a></td><td>123456</td></tr></table><blockquote><p><b>item</b></p><p><b>sequence</b>: 1</p><p><b>careTeamSequence</b>: 1</p><p><b>productOrService</b>: <span title=\"Codes:{http://snomed.info/sct 77343006}\">Angiography</span></p><h3>UnitPrices</h3><table class=\"grid\"><tr><td style=\"display: none\">-</td><td><b>Value</b></td><td><b>Currency</b></td></tr><tr><td style=\"display: none\">*</td><td>10000</td><td>Indian rupee</td></tr></table><h3>Nets</h3><table class=\"grid\"><tr><td style=\"display: none\">-</td><td><b>Value</b></td><td><b>Currency</b></td></tr><tr><td style=\"display: none\">*</td><td>20000</td><td>Indian rupee</td></tr></table></blockquote><blockquote><p><b>item</b></p><p><b>sequence</b>: 2</p><p><b>careTeamSequence</b>: 1</p><p><b>productOrService</b>: <span title=\"Codes:{http://snomed.info/sct 418285008}\">Angioplasty of blood vessel</span></p><h3>UnitPrices</h3><table class=\"grid\"><tr><td style=\"display: none\">-</td><td><b>Value</b></td><td><b>Currency</b></td></tr><tr><td style=\"display: none\">*</td><td>50000</td><td>Indian rupee</td></tr></table><h3>Nets</h3><table class=\"grid\"><tr><td style=\"display: none\">-</td><td><b>Value</b></td><td><b>Currency</b></td></tr><tr><td style=\"display: none\">*</td><td>50000</td><td>Indian rupee</td></tr></table></blockquote><blockquote><p><b>item</b></p><p><b>sequence</b>: 3</p><p><b>careTeamSequence</b>: 1</p><p><b>productOrService</b>: <span title=\"Codes:{http://snomed.info/sct 309904001}\">Intensive care unit</span></p><h3>UnitPrices</h3><table class=\"grid\"><tr><td style=\"display: none\">-</td><td><b>Value</b></td><td><b>Currency</b></td></tr><tr><td style=\"display: none\">*</td><td>2000</td><td>Indian rupee</td></tr></table><h3>Nets</h3><table class=\"grid\"><tr><td style=\"display: none\">-</td><td><b>Value</b></td><td><b>Currency</b></td></tr><tr><td style=\"display: none\">*</td><td>20000</td><td>Indian rupee</td></tr></table></blockquote><h3>Totals</h3><table class=\"grid\"><tr><td style=\"display: none\">-</td><td><b>Value</b></td><td><b>Currency</b></td></tr><tr><td style=\"display: none\">*</td><td>90000</td><td>Indian rupee</td></tr></table></div>"},"identifier":[{"value":"761234674365"},{"value":"344536545"}],"status":"active","type":{"coding":[{"system":"http://snomed.info/sct","code":"737481003","display":"Inpatient care management (procedure)"}]},"use":"claim","patient":{"reference":"urn:uuid:e73177ed-0eeb-48dd-9a1f-193f0eef82b5","display":"Patient"},"billablePeriod":{"start":"2025-03-07T11:01:00+05:00","end":"2025-04-07T11:01:00+05:00"},"created":"2025-04-07T11:01:00+05:00","insurer":{"reference":"urn:uuid:58affc0f-0c11-48aa-a354-e904638f95d0","display":"Organization"},"provider":{"reference":"urn:uuid:3c116cfa-b008-4a44-a00d-8011a23b986a","display":"Organization"},"priority":{"coding":[{"system":"http://terminology.hl7.org/CodeSystem/processpriority","code":"normal"}]},"related":[{"claim":{"reference":"urn:uuid:a9def26a-82e6-4e9b-bad9-3a911dabd1c6","display":"Claim-enhancement"},"relationship":{"coding":[{"system":"https://nrces.in/ndhm/fhir/r4/CodeSystem/ndhm-related-claim-relationship-code","code":"settlement","display":"Settlement"}]}}],"careTeam":[{"sequence":1,"provider":{"reference":"urn:uuid:18a04177-02de-4e71-b561-68b86974b256","display":"Practitioner"},"role":{"coding":[{"system":"http://snomed.info/sct","code":"223366009","display":"Healthcare professional (occupation)"}]},"qualification":{"coding":[{"system":"http://snomed.info/sct","code":"394658006","display":"Clinical specialty (qualifier value)"}]}}],"supportingInfo":[{"sequence":1,"category":{"coding":[{"system":"https://nrces.in/ndhm/fhir/r4/CodeSystem/ndhm-supportinginfo-category","code":"INV","display":"Document Type - Investigation"}]},"code":{"coding":[{"system":"http://snomed.info/sct","code":"77343006","display":"Angiography"}]},"valueAttachment":{"contentType":"application/pdf","language":"en-IN","data":"","title":"Angiography PDF"}},{"sequence":2,"category":{"coding":[{"system":"https://nrces.in/ndhm/fhir/r4/CodeSystem/ndhm-supportinginfo-category","code":"INV","display":"Document Type - Investigation"}]},"code":{"coding":[{"system":"http://snomed.info/sct","code":"77343006","display":"Angiography"}]},"valueAttachment":{"contentType":"application/pdf","language":"en-IN","data":"","title":"Angiography PDF"}}],"diagnosis":[{"sequence":1,"diagnosisCodeableConcept":{"coding":[{"system":"http://hl7.org/fhir/sid/icd-10","code":"I46.9","display":"Cardiac arrest, unspecified"}]},"type":[{"coding":[{"system":"http://snomed.info/sct","code":"89100005","display":"Final diagnosis (discharge) (contextual qualifier) (qualifier value)"}]}]}],"procedure":[{"sequence":1,"procedureCodeableConcept":{"coding":[{"system":"http://snomed.info/sct","code":"77343006","display":"Angiography"}]}},{"sequence":2,"procedureCodeableConcept":{"coding":[{"system":"http://snomed.info/sct","code":"418285008","display":"Angioplasty of blood vessel"}]}}],"insurance":[{"sequence":1,"focal":true,"coverage":{"reference":"urn:uuid:f4478db8-8996-4855-96c8-546dcfc364cb","display":"Coverage"},"preAuthRef":["123456"]}],"item":[{"sequence":1,"careTeamSequence":[1],"productOrService":{"coding":[{"system":"http://snomed.info/sct","code":"77343006","display":"Angiography"}]},"unitPrice":{"value":10000,"currency":"INR"},"net":{"value":20000,"currency":"INR"}},{"sequence":2,"careTeamSequence":[1],"productOrService":{"coding":[{"system":"http://snomed.info/sct","code":"418285008","display":"Angioplasty of blood vessel"}]},"unitPrice":{"value":50000,"currency":"INR"},"net":{"value":50000,"currency":"INR"}},{"sequence":3,"careTeamSequence":[1],"productOrService":{"coding":[{"system":"http://snomed.info/sct","code":"309904001","display":"Intensive care unit"}]},"unitPrice":{"value":2000,"currency":"INR"},"net":{"value":20000,"currency":"INR"}}],"total":{"value":90000,"currency":"INR"}}},{"fullUrl":"urn:uuid:e73177ed-0eeb-48dd-9a1f-193f0eef82b5","resource":{"resourceType":"Patient","id":"e73177ed-0eeb-48dd-9a1f-193f0eef82b5","meta":{"profile":["https://nrces.in/ndhm/fhir/r4/StructureDefinition/Patient"]},"text":{"status":"generated","div":"<div xmlns=\"http://www.w3.org/1999/xhtml\"><a name=\"Patient_e73177ed-0eeb-48dd-9a1f-193f0eef82b5\"> </a><p class=\"res-header-id\"><b>Generated Narrative: Patient e73177ed-0eeb-48dd-9a1f-193f0eef82b5</b></p><a name=\"e73177ed-0eeb-48dd-9a1f-193f0eef82b5\"> </a><a name=\"hce73177ed-0eeb-48dd-9a1f-193f0eef82b5\"> </a><a name=\"e73177ed-0eeb-48dd-9a1f-193f0eef82b5-hi-IN\"> </a><p style=\"border: 1px #661aff solid; background-color: #e6e6ff; padding: 10px;\">Adarsh Agrawal Male, DoB: 1981-01-12 ( Adhaar number: 7225-4829-5255)</p><hr/><table class=\"grid\"><tr><td style=\"background-color: #f3f5da\" title=\"Ways to contact the Patient\">Contact Detail</td><td colspan=\"3\"><a href=\"tel:+919818512600\">+919818512600</a></td></tr></table></div>"},"identifier":[{"type":{"coding":[{"system":"https://nrces.in/ndhm/fhir/r4/CodeSystem/ndhm-identifier-type-code","code":"ADN","display":"Adhaar number"}]},"system":"https://uidai.gov.in/","value":"7225-4829-5255"}],"name":[{"text":"Adarsh Agrawal"}],"telecom":[{"system":"phone","value":"+919818512600","use":"home"}],"gender":"male","birthDate":"1981-01-12"}},{"fullUrl":"urn:uuid:58affc0f-0c11-48aa-a354-e904638f95d0","resource":{"resourceType":"Organization","id":"58affc0f-0c11-48aa-a354-e904638f95d0","meta":{"profile":["https://nrces.in/ndhm/fhir/r4/StructureDefinition/Organization"]},"text":{"status":"generated","div":"<div xmlns=\"http://www.w3.org/1999/xhtml\"><a name=\"Organization_58affc0f-0c11-48aa-a354-e904638f95d0\"> </a><p class=\"res-header-id\"><b>Generated Narrative: Organization 58affc0f-0c11-48aa-a354-e904638f95d0</b></p><a name=\"58affc0f-0c11-48aa-a354-e904638f95d0\"> </a><a name=\"hc58affc0f-0c11-48aa-a354-e904638f95d0\"> </a><a name=\"58affc0f-0c11-48aa-a354-e904638f95d0-hi-IN\"> </a><p><b>identifier</b>: Registry of Hospitals in Network of Insurance (ROHINI) ID/4567878</p><p><b>type</b>: <span title=\"Codes:{http://terminology.hl7.org/CodeSystem/organization-type ins}\">Insurance Company</span></p><p><b>name</b>: XYZ Insurance Co. Ltd.</p><p><b>telecom</b>: <a href=\"tel:+9124326341234\">+91 243 2634 1234</a>, <a href=\"mailto:contact@xyz.org\">contact@xyz.org</a></p></div>"},"identifier":[{"type":{"coding":[{"system":"https://nrces.in/ndhm/fhir/r4/CodeSystem/ndhm-identifier-type-code","code":"ROHINI","display":"Registry of Hospitals in Network of Insurance (ROHINI) ID"}]},"system":"https://rohini.iib.gov.in/","value":"4567878"}],"type":[{"coding":[{"system":"http://terminology.hl7.org/CodeSystem/organization-type","code":"ins","display":"Insurance Company"}]}],"name":"XYZ Insurance Co. Ltd.","telecom":[{"system":"phone","value":"+91 243 2634 1234","use":"work"},{"system":"email","value":"contact@xyz.org","use":"work"}]}},{"fullUrl":"urn:uuid:3c116cfa-b008-4a44-a00d-8011a23b986a","resource":{"resourceType":"Organization","id":"3c116cfa-b008-4a44-a00d-8011a23b986a","meta":{"profile":["https://nrces.in/ndhm/fhir/r4/StructureDefinition/Organization"]},"text":{"status":"generated","div":"<div xmlns=\"http://www.w3.org/1999/xhtml\"><a name=\"Organization_3c116cfa-b008-4a44-a00d-8011a23b986a\"> </a><p class=\"res-header-id\"><b>Generated Narrative: Organization 3c116cfa-b008-4a44-a00d-8011a23b986a</b></p><a name=\"3c116cfa-b008-4a44-a00d-8011a23b986a\"> </a><a name=\"hc3c116cfa-b008-4a44-a00d-8011a23b986a\"> </a><a name=\"3c116cfa-b008-4a44-a00d-8011a23b986a-hi-IN\"> </a><p><b>identifier</b>: Provider number/45675454</p><p><b>type</b>: <span title=\"Codes:{http://terminology.hl7.org/CodeSystem/organization-type prov}\">Healthcare Provider</span></p><p><b>name</b>: XYZ Hospital Co. Ltd.</p><p><b>telecom</b>: <a href=\"tel:+9124326341278\">+91 243 2634 1278</a>, <a href=\"mailto:contact@xyz.org\">contact@xyz.org</a></p></div>"},"identifier":[{"type":{"coding":[{"system":"http://terminology.hl7.org/CodeSystem/v2-0203","code":"PRN","display":"Provider number"}]},"system":"https://facility.ndhm.gov.in","value":"45675454"}],"type":[{"coding":[{"system":"http://terminology.hl7.org/CodeSystem/organization-type","code":"prov","display":"Healthcare Provider"}]}],"name":"XYZ Hospital Co. Ltd.","telecom":[{"system":"phone","value":"+91 243 2634 1278","use":"work"},{"system":"email","value":"contact@xyz.org","use":"work"}]}},{"fullUrl":"urn:uuid:18a04177-02de-4e71-b561-68b86974b256","resource":{"resourceType":"Practitioner","id":"18a04177-02de-4e71-b561-68b86974b256","meta":{"profile":["https://nrces.in/ndhm/fhir/r4/StructureDefinition/Practitioner"]},"text":{"status":"generated","div":"<div xmlns=\"http://www.w3.org/1999/xhtml\"><a name=\"Practitioner_18a04177-02de-4e71-b561-68b86974b256\"> </a><p class=\"res-header-id\"><b>Generated Narrative: Practitioner 18a04177-02de-4e71-b561-68b86974b256</b></p><a name=\"18a04177-02de-4e71-b561-68b86974b256\"> </a><a name=\"hc18a04177-02de-4e71-b561-68b86974b256\"> </a><a name=\"18a04177-02de-4e71-b561-68b86974b256-hi-IN\"> </a><p><b>identifier</b>: Medical License number/21-1521-3828-3227</p><p><b>name</b>: Dr. Aayush Agrawal</p></div>"},"identifier":[{"type":{"coding":[{"system":"http://terminology.hl7.org/CodeSystem/v2-0203","code":"MD","display":"Medical License number"}]},"system":"https://doctor.ndhm.gov.in","value":"21-1521-3828-3227"}],"name":[{"text":"Dr. Aayush Agrawal"}]}},{"fullUrl":"urn:uuid:f4478db8-8996-4855-96c8-546dcfc364cb","resource":{"resourceType":"Coverage","id":"f4478db8-8996-4855-96c8-546dcfc364cb","meta":{"profile":["https://nrces.in/ndhm/fhir/r4/StructureDefinition/Coverage"]},"text":{"status":"generated","div":"<div xmlns=\"http://www.w3.org/1999/xhtml\"><a name=\"Coverage_f4478db8-8996-4855-96c8-546dcfc364cb\"> </a><p class=\"res-header-id\"><b>Generated Narrative: Coverage f4478db8-8996-4855-96c8-546dcfc364cb</b></p><a name=\"f4478db8-8996-4855-96c8-546dcfc364cb\"> </a><a name=\"hcf4478db8-8996-4855-96c8-546dcfc364cb\"> </a><a name=\"f4478db8-8996-4855-96c8-546dcfc364cb-hi-IN\"> </a><p><b>identifier</b>: <code>https://xyzinsurance.in/policynumber/</code>/235037120</p><p><b>status</b>: Active</p><p><b>type</b>: <span title=\"Codes:{http://terminology.hl7.org/CodeSystem/v3-ActCode HIP}\">health insurance plan policy</span></p><p><b>subscriber</b>: <a href=\"Bundle-TaskBundleForReprocessResponse-example-01.html#urn-uuid-e73177ed-0eeb-48dd-9a1f-193f0eef82b5\">Patient</a></p><p><b>subscriberId</b>: ABC123456BI007</p><p><b>beneficiary</b>: <a href=\"Bundle-TaskBundleForReprocessResponse-example-01.html#urn-uuid-e73177ed-0eeb-48dd-9a1f-193f0eef82b5\">Patient</a></p><p><b>relationship</b>: <span title=\"Codes:{http://terminology.hl7.org/CodeSystem/subscriber-relationship self}\">Self</span></p><p><b>period</b>: ?? --&gt; 2026-03-17</p><p><b>payor</b>: <a href=\"Bundle-TaskBundleForReprocessResponse-example-01.html#urn-uuid-58affc0f-0c11-48aa-a354-e904638f95d0\">Organization</a></p></div>"},"identifier":[{"system":"https://xyzinsurance.in/policynumber/","value":"235037120"}],"status":"active","type":{"coding":[{"system":"http://terminology.hl7.org/CodeSystem/v3-ActCode","code":"HIP","display":"health insurance plan policy"}]},"subscriber":{"reference":"urn:uuid:e73177ed-0eeb-48dd-9a1f-193f0eef82b5","display":"Patient"},"subscriberId":"ABC123456BI007","beneficiary":{"reference":"urn:uuid:e73177ed-0eeb-48dd-9a1f-193f0eef82b5","display":"Patient"},"relationship":{"coding":[{"system":"http://terminology.hl7.org/CodeSystem/subscriber-relationship","code":"self"}]},"period":{"end":"2026-03-17"},"payor":[{"reference":"urn:uuid:58affc0f-0c11-48aa-a354-e904638f95d0","display":"Organization"}]}},{"fullUrl":"urn:uuid:a9def26a-82e6-4e9b-bad9-3a911dabd1c6","resource":{"resourceType":"Claim","id":"a9def26a-82e6-4e9b-bad9-3a911dabd1c6","meta":{"profile":["https://nrces.in/ndhm/fhir/r4/StructureDefinition/Claim"]},"text":{"status":"generated","div":"<div xmlns=\"http://www.w3.org/1999/xhtml\"><a name=\"Claim_a9def26a-82e6-4e9b-bad9-3a911dabd1c6\"> </a><p class=\"res-header-id\"><b>Generated Narrative: Claim a9def26a-82e6-4e9b-bad9-3a911dabd1c6</b></p><a name=\"a9def26a-82e6-4e9b-bad9-3a911dabd1c6\"> </a><a name=\"hca9def26a-82e6-4e9b-bad9-3a911dabd1c6\"> </a><a name=\"a9def26a-82e6-4e9b-bad9-3a911dabd1c6-hi-IN\"> </a><p><b>identifier</b>: 7612345</p><p><b>status</b>: Active</p><p><b>type</b>: <span title=\"Codes:{http://snomed.info/sct 737481003}\">Inpatient care management (procedure)</span></p><p><b>use</b>: Preauthorization</p><p><b>patient</b>: <a href=\"Bundle-TaskBundleForReprocessResponse-example-01.html#urn-uuid-e73177ed-0eeb-48dd-9a1f-193f0eef82b5\">Patient</a></p><p><b>billablePeriod</b>: 2025-03-07 11:01:00+0500 --&gt; 2025-04-07 11:01:00+0500</p><p><b>created</b>: 2025-03-13 11:01:00+0500</p><p><b>insurer</b>: <a href=\"Bundle-TaskBundleForReprocessResponse-example-01.html#urn-uuid-58affc0f-0c11-48aa-a354-e904638f95d0\">Organization</a></p><p><b>provider</b>: <a href=\"Bundle-TaskBundleForReprocessResponse-example-01.html#urn-uuid-3c116cfa-b008-4a44-a00d-8011a23b986a\">Organization</a></p><p><b>priority</b>: <span title=\"Codes:{http://terminology.hl7.org/CodeSystem/processpriority normal}\">Normal</span></p><h3>Relateds</h3><table class=\"grid\"><tr><td style=\"display: none\">-</td><td><b>Claim</b></td><td><b>Relationship</b></td></tr><tr><td style=\"display: none\">*</td><td><a href=\"Bundle-TaskBundleForReprocessResponse-example-01.html#urn-uuid-edb4c41a-64e1-45d9-b2a0-7998af671ad5\">Claim-preauth</a></td><td><span title=\"Codes:{http://terminology.hl7.org/CodeSystem/ex-relatedclaimrelationship prior}\">Prior Claim</span></td></tr></table><h3>CareTeams</h3><table class=\"grid\"><tr><td style=\"display: none\">-</td><td><b>Sequence</b></td><td><b>Provider</b></td><td><b>Role</b></td><td><b>Qualification</b></td></tr><tr><td style=\"display: none\">*</td><td>1</td><td><a href=\"Bundle-TaskBundleForReprocessResponse-example-01.html#urn-uuid-18a04177-02de-4e71-b561-68b86974b256\">Practitioner</a></td><td><span title=\"Codes:{http://snomed.info/sct 223366009}\">Healthcare professional (occupation)</span></td><td><span title=\"Codes:{http://snomed.info/sct 394658006}\">Clinical specialty (qualifier value)</span></td></tr></table><h3>Diagnoses</h3><table class=\"grid\"><tr><td style=\"display: none\">-</td><td><b>Sequence</b></td><td><b>Diagnosis[x]</b></td><td><b>Type</b></td></tr><tr><td style=\"display: none\">*</td><td>1</td><td><span title=\"Codes:{http://hl7.org/fhir/sid/icd-10 I46.9}\">Cardiac arrest, unspecified</span></td><td><span title=\"Codes:{http://snomed.info/sct 89100005}\">Final diagnosis (discharge) (contextual qualifier) (qualifier value)</span></td></tr></table><blockquote><p><b>procedure</b></p><p><b>sequence</b>: 1</p><p><b>procedure</b>: <span title=\"Codes:{http://snomed.info/sct 77343006}\">Angiography</span></p></blockquote><blockquote><p><b>procedure</b></p><p><b>sequence</b>: 2</p><p><b>procedure</b>: <span title=\"Codes:{http://snomed.info/sct 418285008}\">Angioplasty of blood vessel</span></p></blockquote><h3>Insurances</h3><table class=\"grid\"><tr><td style=\"display: none\">-</td><td><b>Sequence</b></td><td><b>Focal</b></td><td><b>Coverage</b></td><td><b>PreAuthRef</b></td></tr><tr><td style=\"display: none\">*</td><td>1</td><td>true</td><td><a href=\"Bundle-TaskBundleForReprocessResponse-example-01.html#urn-uuid-f4478db8-8996-4855-96c8-546dcfc364cb\">Coverage</a></td><td>123456</td></tr></table><blockquote><p><b>item</b></p><p><b>sequence</b>: 1</p><p><b>careTeamSequence</b>: 1</p><p><b>productOrService</b>: <span title=\"Codes:{http://snomed.info/sct 77343006}\">Angiography</span></p><p><b>serviced</b>: 2023-12-09</p><h3>UnitPrices</h3><table class=\"grid\"><tr><td style=\"display: none\">-</td><td><b>Value</b></td><td><b>Currency</b></td></tr><tr><td style=\"display: none\">*</td><td>10000</td><td>Indian rupee</td></tr></table><h3>Nets</h3><table class=\"grid\"><tr><td style=\"display: none\">-</td><td><b>Value</b></td><td><b>Currency</b></td></tr><tr><td style=\"display: none\">*</td><td>10000</td><td>Indian rupee</td></tr></table></blockquote><blockquote><p><b>item</b></p><p><b>sequence</b>: 2</p><p><b>careTeamSequence</b>: 1</p><p><b>productOrService</b>: <span title=\"Codes:{http://snomed.info/sct 418285008}\">Angioplasty of blood vessel</span></p><h3>UnitPrices</h3><table class=\"grid\"><tr><td style=\"display: none\">-</td><td><b>Value</b></td><td><b>Currency</b></td></tr><tr><td style=\"display: none\">*</td><td>10000</td><td>Indian rupee</td></tr></table><h3>Nets</h3><table class=\"grid\"><tr><td style=\"display: none\">-</td><td><b>Value</b></td><td><b>Currency</b></td></tr><tr><td style=\"display: none\">*</td><td>10000</td><td>Indian rupee</td></tr></table></blockquote><h3>Totals</h3><table class=\"grid\"><tr><td style=\"display: none\">-</td><td><b>Value</b></td><td><b>Currency</b></td></tr><tr><td style=\"display: none\">*</td><td>20000</td><td>Indian rupee</td></tr></table></div>"},"identifier":[{"value":"7612345"}],"status":"active","type":{"coding":[{"system":"http://snomed.info/sct","code":"737481003","display":"Inpatient care management (procedure)"}]},"use":"preauthorization","patient":{"reference":"urn:uuid:e73177ed-0eeb-48dd-9a1f-193f0eef82b5","display":"Patient"},"billablePeriod":{"start":"2025-03-07T11:01:00+05:00","end":"2025-04-07T11:01:00+05:00"},"created":"2025-03-13T11:01:00+05:00","insurer":{"reference":"urn:uuid:58affc0f-0c11-48aa-a354-e904638f95d0","display":"Organization"},"provider":{"reference":"urn:uuid:3c116cfa-b008-4a44-a00d-8011a23b986a","display":"Organization"},"priority":{"coding":[{"system":"http://terminology.hl7.org/CodeSystem/processpriority","code":"normal"}]},"related":[{"claim":{"reference":"urn:uuid:edb4c41a-64e1-45d9-b2a0-7998af671ad5","display":"Claim-preauth"},"relationship":{"coding":[{"system":"http://terminology.hl7.org/CodeSystem/ex-relatedclaimrelationship","code":"prior","display":"Prior Claim"}]}}],"careTeam":[{"sequence":1,"provider":{"reference":"urn:uuid:18a04177-02de-4e71-b561-68b86974b256","display":"Practitioner"},"role":{"coding":[{"system":"http://snomed.info/sct","code":"223366009","display":"Healthcare professional (occupation)"}]},"qualification":{"coding":[{"system":"http://snomed.info/sct","code":"394658006","display":"Clinical specialty (qualifier value)"}]}}],"diagnosis":[{"sequence":1,"diagnosisCodeableConcept":{"coding":[{"system":"http://hl7.org/fhir/sid/icd-10","code":"I46.9","display":"Cardiac arrest, unspecified"}]},"type":[{"coding":[{"system":"http://snomed.info/sct","code":"89100005","display":"Final diagnosis (discharge) (contextual qualifier) (qualifier value)"}]}]}],"procedure":[{"sequence":1,"procedureCodeableConcept":{"coding":[{"system":"http://snomed.info/sct","code":"77343006","display":"Angiography"}]}},{"sequence":2,"procedureCodeableConcept":{"coding":[{"system":"http://snomed.info/sct","code":"418285008","display":"Angioplasty of blood vessel"}]}}],"insurance":[{"sequence":1,"focal":true,"coverage":{"reference":"urn:uuid:f4478db8-8996-4855-96c8-546dcfc364cb","display":"Coverage"},"preAuthRef":["123456"]}],"item":[{"sequence":1,"careTeamSequence":[1],"productOrService":{"coding":[{"system":"http://snomed.info/sct","code":"77343006","display":"Angiography"}]},"servicedDate":"2023-12-09","unitPrice":{"value":10000,"currency":"INR"},"net":{"value":10000,"currency":"INR"}},{"sequence":2,"careTeamSequence":[1],"productOrService":{"coding":[{"system":"http://snomed.info/sct","code":"418285008","display":"Angioplasty of blood vessel"}]},"unitPrice":{"value":10000,"currency":"INR"},"net":{"value":10000,"currency":"INR"}}],"total":{"value":20000,"currency":"INR"}}},{"fullUrl":"urn:uuid:edb4c41a-64e1-45d9-b2a0-7998af671ad5","resource":{"resourceType":"Claim","id":"edb4c41a-64e1-45d9-b2a0-7998af671ad5","meta":{"profile":["https://nrces.in/ndhm/fhir/r4/StructureDefinition/Claim"]},"text":{"status":"generated","div":"<div xmlns=\"http://www.w3.org/1999/xhtml\"><a name=\"Claim_edb4c41a-64e1-45d9-b2a0-7998af671ad5\"> </a><p class=\"res-header-id\"><b>Generated Narrative: Claim edb4c41a-64e1-45d9-b2a0-7998af671ad5</b></p><a name=\"edb4c41a-64e1-45d9-b2a0-7998af671ad5\"> </a><a name=\"hcedb4c41a-64e1-45d9-b2a0-7998af671ad5\"> </a><a name=\"edb4c41a-64e1-45d9-b2a0-7998af671ad5-hi-IN\"> </a><p><b>identifier</b>: 7612345</p><p><b>status</b>: Active</p><p><b>type</b>: <span title=\"Codes:{http://snomed.info/sct 737481003}\">Inpatient care management (procedure)</span></p><p><b>use</b>: Preauthorization</p><p><b>patient</b>: <a href=\"Bundle-TaskBundleForReprocessResponse-example-01.html#urn-uuid-e73177ed-0eeb-48dd-9a1f-193f0eef82b5\">Patient</a></p><p><b>billablePeriod</b>: 2025-03-07 11:01:00+0500 --&gt; 2025-04-07 11:01:00+0500</p><p><b>created</b>: 2025-03-08 11:01:00+0500</p><p><b>insurer</b>: <a href=\"Bundle-TaskBundleForReprocessResponse-example-01.html#urn-uuid-58affc0f-0c11-48aa-a354-e904638f95d0\">Organization</a></p><p><b>provider</b>: <a href=\"Bundle-TaskBundleForReprocessResponse-example-01.html#urn-uuid-3c116cfa-b008-4a44-a00d-8011a23b986a\">Organization</a></p><p><b>priority</b>: <span title=\"Codes:{http://terminology.hl7.org/CodeSystem/processpriority normal}\">Normal</span></p><h3>CareTeams</h3><table class=\"grid\"><tr><td style=\"display: none\">-</td><td><b>Sequence</b></td><td><b>Provider</b></td><td><b>Role</b></td><td><b>Qualification</b></td></tr><tr><td style=\"display: none\">*</td><td>1</td><td><a href=\"Bundle-TaskBundleForReprocessResponse-example-01.html#urn-uuid-18a04177-02de-4e71-b561-68b86974b256\">Practitioner</a></td><td><span title=\"Codes:{http://snomed.info/sct 223366009}\">Healthcare professional (occupation)</span></td><td><span title=\"Codes:{http://snomed.info/sct 394658006}\">Clinical specialty (qualifier value)</span></td></tr></table><h3>Diagnoses</h3><table class=\"grid\"><tr><td style=\"display: none\">-</td><td><b>Sequence</b></td><td><b>Diagnosis[x]</b></td><td><b>Type</b></td></tr><tr><td style=\"display: none\">*</td><td>1</td><td><span title=\"Codes:{http://hl7.org/fhir/sid/icd-10 I46.9}\">Cardiac arrest, unspecified</span></td><td><span title=\"Codes:{http://snomed.info/sct 89100005}\">Final diagnosis (discharge) (contextual qualifier) (qualifier value)</span></td></tr></table><blockquote><p><b>procedure</b></p><p><b>sequence</b>: 1</p><p><b>procedure</b>: <span title=\"Codes:{http://snomed.info/sct 77343006}\">Angiography</span></p></blockquote><blockquote><p><b>procedure</b></p><p><b>sequence</b>: 2</p><p><b>procedure</b>: <span title=\"Codes:{http://snomed.info/sct 418285008}\">Angioplasty of blood vessel</span></p></blockquote><h3>Insurances</h3><table class=\"grid\"><tr><td style=\"display: none\">-</td><td><b>Sequence</b></td><td><b>Focal</b></td><td><b>Coverage</b></td><td><b>PreAuthRef</b></td></tr><tr><td style=\"display: none\">*</td><td>1</td><td>true</td><td><a href=\"Bundle-TaskBundleForReprocessResponse-example-01.html#urn-uuid-f4478db8-8996-4855-96c8-546dcfc364cb\">Coverage</a></td><td>123456</td></tr></table><blockquote><p><b>item</b></p><p><b>sequence</b>: 1</p><p><b>careTeamSequence</b>: 1</p><p><b>productOrService</b>: <span title=\"Codes:{http://snomed.info/sct 77343006}\">Angiography</span></p><p><b>serviced</b>: 2023-12-09</p><h3>UnitPrices</h3><table class=\"grid\"><tr><td style=\"display: none\">-</td><td><b>Value</b></td><td><b>Currency</b></td></tr><tr><td style=\"display: none\">*</td><td>10000</td><td>Indian rupee</td></tr></table><h3>Nets</h3><table class=\"grid\"><tr><td style=\"display: none\">-</td><td><b>Value</b></td><td><b>Currency</b></td></tr><tr><td style=\"display: none\">*</td><td>10000</td><td>Indian rupee</td></tr></table></blockquote><blockquote><p><b>item</b></p><p><b>sequence</b>: 2</p><p><b>careTeamSequence</b>: 1</p><p><b>productOrService</b>: <span title=\"Codes:{http://snomed.info/sct 418285008}\">Angioplasty of blood vessel</span></p><h3>UnitPrices</h3><table class=\"grid\"><tr><td style=\"display: none\">-</td><td><b>Value</b></td><td><b>Currency</b></td></tr><tr><td style=\"display: none\">*</td><td>40000</td><td>Indian rupee</td></tr></table><h3>Nets</h3><table class=\"grid\"><tr><td style=\"display: none\">-</td><td><b>Value</b></td><td><b>Currency</b></td></tr><tr><td style=\"display: none\">*</td><td>40000</td><td>Indian rupee</td></tr></table></blockquote><blockquote><p><b>item</b></p><p><b>sequence</b>: 3</p><p><b>careTeamSequence</b>: 1</p><p><b>productOrService</b>: <span title=\"Codes:{http://snomed.info/sct 309904001}\">Intensive care unit</span></p><p><b>serviced</b>: 2023-12-11</p><p><b>quantity</b>: 10 day</p><h3>UnitPrices</h3><table class=\"grid\"><tr><td style=\"display: none\">-</td><td><b>Value</b></td><td><b>Currency</b></td></tr><tr><td style=\"display: none\">*</td><td>2000</td><td>Indian rupee</td></tr></table><h3>Nets</h3><table class=\"grid\"><tr><td style=\"display: none\">-</td><td><b>Value</b></td><td><b>Currency</b></td></tr><tr><td style=\"display: none\">*</td><td>20000</td><td>Indian rupee</td></tr></table></blockquote><h3>Totals</h3><table class=\"grid\"><tr><td style=\"display: none\">-</td><td><b>Value</b></td><td><b>Currency</b></td></tr><tr><td style=\"display: none\">*</td><td>70000</td><td>Indian rupee</td></tr></table></div>"},"identifier":[{"value":"7612345"}],"status":"active","type":{"coding":[{"system":"http://snomed.info/sct","code":"737481003","display":"Inpatient care management (procedure)"}]},"use":"preauthorization","patient":{"reference":"urn:uuid:e73177ed-0eeb-48dd-9a1f-193f0eef82b5","display":"Patient"},"billablePeriod":{"start":"2025-03-07T11:01:00+05:00","end":"2025-04-07T11:01:00+05:00"},"created":"2025-03-08T11:01:00+05:00","insurer":{"reference":"urn:uuid:58affc0f-0c11-48aa-a354-e904638f95d0","display":"Organization"},"provider":{"reference":"urn:uuid:3c116cfa-b008-4a44-a00d-8011a23b986a","display":"Organization"},"priority":{"coding":[{"system":"http://terminology.hl7.org/CodeSystem/processpriority","code":"normal"}]},"careTeam":[{"sequence":1,"provider":{"reference":"urn:uuid:18a04177-02de-4e71-b561-68b86974b256","display":"Practitioner"},"role":{"coding":[{"system":"http://snomed.info/sct","code":"223366009","display":"Healthcare professional (occupation)"}]},"qualification":{"coding":[{"system":"http://snomed.info/sct","code":"394658006","display":"Clinical specialty (qualifier value)"}]}}],"diagnosis":[{"sequence":1,"diagnosisCodeableConcept":{"coding":[{"system":"http://hl7.org/fhir/sid/icd-10","code":"I46.9","display":"Cardiac arrest, unspecified"}]},"type":[{"coding":[{"system":"http://snomed.info/sct","code":"89100005","display":"Final diagnosis (discharge) (contextual qualifier) (qualifier value)"}]}]}],"procedure":[{"sequence":1,"procedureCodeableConcept":{"coding":[{"system":"http://snomed.info/sct","code":"77343006","display":"Angiography"}]}},{"sequence":2,"procedureCodeableConcept":{"coding":[{"system":"http://snomed.info/sct","code":"418285008","display":"Angioplasty of blood vessel"}]}}],"insurance":[{"sequence":1,"focal":true,"coverage":{"reference":"urn:uuid:f4478db8-8996-4855-96c8-546dcfc364cb","display":"Coverage"},"preAuthRef":["123456"]}],"item":[{"sequence":1,"careTeamSequence":[1],"productOrService":{"coding":[{"system":"http://snomed.info/sct","code":"77343006","display":"Angiography"}]},"servicedDate":"2023-12-09","unitPrice":{"value":10000,"currency":"INR"},"net":{"value":10000,"currency":"INR"}},{"sequence":2,"careTeamSequence":[1],"productOrService":{"coding":[{"system":"http://snomed.info/sct","code":"418285008","display":"Angioplasty of blood vessel"}]},"unitPrice":{"value":40000,"currency":"INR"},"net":{"value":40000,"currency":"INR"}},{"sequence":3,"careTeamSequence":[1],"productOrService":{"coding":[{"system":"http://snomed.info/sct","code":"309904001","display":"Intensive care unit"}]},"servicedDate":"2023-12-11","quantity":{"value":10,"unit":"day"},"unitPrice":{"value":2000,"currency":"INR"},"net":{"value":20000,"currency":"INR"}}],"total":{"value":70000,"currency":"INR"}}}]}