{"resourceType":"Bundle","id":"TaskBundleForSearchRequest-example-01","meta":{"profile":["https://nrces.in/ndhm/fhir/r4/StructureDefinition/TaskBundle"],"security":[{"system":"http://terminology.hl7.org/CodeSystem/v3-Confidentiality","code":"V","display":"very restricted"}]},"identifier":{"value":"bc3c6c57-2053-4d0e-ac40-139ccccff645"},"type":"collection","timestamp":"2025-03-07T15:32:26.605+05:30","entry":[{"fullUrl":"urn:uuid:4f481cc7-5d37-4ad2-9845-36b10637ed89","resource":{"resourceType":"Task","id":"4f481cc7-5d37-4ad2-9845-36b10637ed89","meta":{"profile":["https://nrces.in/ndhm/fhir/r4/StructureDefinition/Task"]},"text":{"status":"generated","div":"<div xmlns=\"http://www.w3.org/1999/xhtml\"><a name=\"Task_4f481cc7-5d37-4ad2-9845-36b10637ed89\"> </a><p class=\"res-header-id\"><b>Generated Narrative: Task 4f481cc7-5d37-4ad2-9845-36b10637ed89</b></p><a name=\"4f481cc7-5d37-4ad2-9845-36b10637ed89\"> </a><a name=\"hc4f481cc7-5d37-4ad2-9845-36b10637ed89\"> </a><a name=\"4f481cc7-5d37-4ad2-9845-36b10637ed89-hi-IN\"> </a><p><b>status</b>: Requested</p><p><b>intent</b>: order</p><p><b>code</b>: <span title=\"Codes:{https://nrces.in/ndhm/fhir/r4/CodeSystem/ndhm-task-codes search}\">Search</span></p><p><b>description</b>: Request for Searching the claim with number - 761234674365</p><p><b>authoredOn</b>: 2025-03-07 15:32:26+0530</p><p><b>requester</b>: <a href=\"Bundle-TaskBundleForSearchRequest-example-01.html#urn-uuid-a4ca8147-0200-4a98-a7bf-26cfc2b31d98\">Organization</a></p><p><b>owner</b>: <a href=\"Bundle-TaskBundleForSearchRequest-example-01.html#urn-uuid-1e7ccc83-bc79-4087-9601-d9b05a928f34\">Organization</a></p><h3>Inputs</h3><table class=\"grid\"><tr><td style=\"display: none\">-</td><td><b>Type</b></td><td><b>Value[x]</b></td></tr><tr><td style=\"display: none\">*</td><td><span title=\"Codes:{https://nrces.in/ndhm/fhir/r4/CodeSystem/ndhm-task-input-type-code claimNumber}\">ClaimNumber</span></td><td>761234674365</td></tr></table></div>"},"status":"requested","intent":"order","code":{"coding":[{"system":"https://nrces.in/ndhm/fhir/r4/CodeSystem/ndhm-task-codes","code":"search"}]},"description":"Request for Searching the claim with number - 761234674365","authoredOn":"2025-03-07T15:32:26.605+05:30","requester":{"reference":"urn:uuid:a4ca8147-0200-4a98-a7bf-26cfc2b31d98","display":"Organization"},"owner":{"reference":"urn:uuid:1e7ccc83-bc79-4087-9601-d9b05a928f34","display":"Organization"},"input":[{"type":{"coding":[{"system":"https://nrces.in/ndhm/fhir/r4/CodeSystem/ndhm-task-input-type-code","code":"claimNumber"}]},"valueString":"761234674365"}]}},{"fullUrl":"urn:uuid:1e7ccc83-bc79-4087-9601-d9b05a928f34","resource":{"resourceType":"Organization","id":"1e7ccc83-bc79-4087-9601-d9b05a928f34","meta":{"profile":["https://nrces.in/ndhm/fhir/r4/StructureDefinition/Organization"]},"text":{"status":"generated","div":"<div xmlns=\"http://www.w3.org/1999/xhtml\"><a name=\"Organization_1e7ccc83-bc79-4087-9601-d9b05a928f34\"> </a><p class=\"res-header-id\"><b>Generated Narrative: Organization 1e7ccc83-bc79-4087-9601-d9b05a928f34</b></p><a name=\"1e7ccc83-bc79-4087-9601-d9b05a928f34\"> </a><a name=\"hc1e7ccc83-bc79-4087-9601-d9b05a928f34\"> </a><a name=\"1e7ccc83-bc79-4087-9601-d9b05a928f34-hi-IN\"> </a><p><b>identifier</b>: Registry of Hospitals in Network of Insurance (ROHINI) ID/4567878</p><p><b>type</b>: <span title=\"Codes:{http://terminology.hl7.org/CodeSystem/organization-type ins}\">Insurance Company</span></p><p><b>name</b>: XYZ Insurance Co. Ltd.</p><p><b>telecom</b>: <a href=\"tel:+9124326341234\">+91 243 2634 1234</a>, <a href=\"mailto:contact@xyz.org\">contact@xyz.org</a></p></div>"},"identifier":[{"type":{"coding":[{"system":"https://nrces.in/ndhm/fhir/r4/CodeSystem/ndhm-identifier-type-code","code":"ROHINI","display":"Registry of Hospitals in Network of Insurance (ROHINI) ID"}]},"system":"https://rohini.iib.gov.in/","value":"4567878"}],"type":[{"coding":[{"system":"http://terminology.hl7.org/CodeSystem/organization-type","code":"ins","display":"Insurance Company"}]}],"name":"XYZ Insurance Co. Ltd.","telecom":[{"system":"phone","value":"+91 243 2634 1234","use":"work"},{"system":"email","value":"contact@xyz.org","use":"work"}]}},{"fullUrl":"urn:uuid:a4ca8147-0200-4a98-a7bf-26cfc2b31d98","resource":{"resourceType":"Organization","id":"a4ca8147-0200-4a98-a7bf-26cfc2b31d98","meta":{"profile":["https://nrces.in/ndhm/fhir/r4/StructureDefinition/Organization"]},"text":{"status":"generated","div":"<div xmlns=\"http://www.w3.org/1999/xhtml\"><a name=\"Organization_a4ca8147-0200-4a98-a7bf-26cfc2b31d98\"> </a><p class=\"res-header-id\"><b>Generated Narrative: Organization a4ca8147-0200-4a98-a7bf-26cfc2b31d98</b></p><a name=\"a4ca8147-0200-4a98-a7bf-26cfc2b31d98\"> </a><a name=\"hca4ca8147-0200-4a98-a7bf-26cfc2b31d98\"> </a><a name=\"a4ca8147-0200-4a98-a7bf-26cfc2b31d98-hi-IN\"> </a><p><b>identifier</b>: Provider number/456787448</p><p><b>type</b>: <span title=\"Codes:{http://terminology.hl7.org/CodeSystem/organization-type prov}\">Healthcare Provider</span></p><p><b>name</b>: XYZ Hospital Co. Ltd.</p><p><b>telecom</b>: <a href=\"tel:+9124326347856\">+91 243 2634 7856</a>, <a href=\"mailto:contact@xyz.org\">contact@xyz.org</a></p></div>"},"identifier":[{"type":{"coding":[{"system":"http://terminology.hl7.org/CodeSystem/v2-0203","code":"PRN","display":"Provider number"}]},"system":"https://facility.ndhm.gov.in","value":"456787448"}],"type":[{"coding":[{"system":"http://terminology.hl7.org/CodeSystem/organization-type","code":"prov","display":"Healthcare Provider"}]}],"name":"XYZ Hospital Co. Ltd.","telecom":[{"system":"phone","value":"+91 243 2634 7856","use":"work"},{"system":"email","value":"contact@xyz.org","use":"work"}]}}]}