{"resourceType":"Bundle","id":"TaskBundleForPaymentNoticeResponse-example-01","meta":{"profile":["https://nrces.in/ndhm/fhir/r4/StructureDefinition/TaskBundle"],"security":[{"system":"http://terminology.hl7.org/CodeSystem/v3-Confidentiality","code":"V","display":"very restricted"}]},"identifier":{"value":"bc3c6c57-2053-4d0e-ac40-139ccccff645"},"type":"collection","timestamp":"2025-04-02T15:32:26.605+05:30","entry":[{"fullUrl":"urn:uuid:5e8e674e-6692-4eaf-9264-8e61d80357ba","resource":{"resourceType":"Task","id":"5e8e674e-6692-4eaf-9264-8e61d80357ba","meta":{"profile":["https://nrces.in/ndhm/fhir/r4/StructureDefinition/Task"]},"text":{"status":"generated","div":"<div xmlns=\"http://www.w3.org/1999/xhtml\"><a name=\"Task_5e8e674e-6692-4eaf-9264-8e61d80357ba\"> </a><p class=\"res-header-id\"><b>Generated Narrative: Task 5e8e674e-6692-4eaf-9264-8e61d80357ba</b></p><a name=\"5e8e674e-6692-4eaf-9264-8e61d80357ba\"> </a><a name=\"hc5e8e674e-6692-4eaf-9264-8e61d80357ba\"> </a><a name=\"5e8e674e-6692-4eaf-9264-8e61d80357ba-hi-IN\"> </a><p><b>status</b>: Completed</p><p><b>intent</b>: order</p><p><b>code</b>: <span title=\"Codes:{http://terminology.hl7.org/CodeSystem/financialtaskcode status}\">Status check</span></p><p><b>description</b>: response for payment status Check</p><p><b>authoredOn</b>: 2025-04-02 15:32:26+0530</p><p><b>requester</b>: <a href=\"Bundle-TaskBundleForPaymentNoticeResponse-example-01.html#urn-uuid-36b41540-7389-4742-bfbd-89169e8b799d\">Organization-hospital</a></p><p><b>owner</b>: <a href=\"Bundle-TaskBundleForPaymentNoticeResponse-example-01.html#urn-uuid-75e790c0-55dd-4486-9ba3-e677a19a4e5a\">Organization-insurance-company</a></p><h3>Outputs</h3><table class=\"grid\"><tr><td style=\"display: none\">-</td><td><b>Type</b></td><td><b>Value[x]</b></td></tr><tr><td style=\"display: none\">*</td><td><span title=\"Codes:{https://nrces.in/ndhm/fhir/r4/CodeSystem/ndhm-task-output-type status}\">Status</span></td><td><span title=\"Codes:{https://nrces.in/ndhm/fhir/r4/CodeSystem/ndhm-task-output-value paymentack}\">Payment is acknowledged</span></td></tr></table></div>"},"status":"completed","intent":"order","code":{"coding":[{"system":"http://terminology.hl7.org/CodeSystem/financialtaskcode","code":"status"}]},"description":"response for payment status Check","authoredOn":"2025-04-02T15:32:26.605+05:30","requester":{"reference":"urn:uuid:36b41540-7389-4742-bfbd-89169e8b799d","display":"Organization-hospital"},"owner":{"reference":"urn:uuid:75e790c0-55dd-4486-9ba3-e677a19a4e5a","display":"Organization-insurance-company"},"output":[{"type":{"coding":[{"system":"https://nrces.in/ndhm/fhir/r4/CodeSystem/ndhm-task-output-type","code":"status"}]},"valueCodeableConcept":{"coding":[{"system":"https://nrces.in/ndhm/fhir/r4/CodeSystem/ndhm-task-output-value","code":"paymentack","display":"Payment is acknowledged"}]}}]}},{"fullUrl":"urn:uuid:75e790c0-55dd-4486-9ba3-e677a19a4e5a","resource":{"resourceType":"Organization","id":"75e790c0-55dd-4486-9ba3-e677a19a4e5a","meta":{"profile":["https://nrces.in/ndhm/fhir/r4/StructureDefinition/Organization"]},"text":{"status":"generated","div":"<div xmlns=\"http://www.w3.org/1999/xhtml\"><a name=\"Organization_75e790c0-55dd-4486-9ba3-e677a19a4e5a\"> </a><p class=\"res-header-id\"><b>Generated Narrative: Organization 75e790c0-55dd-4486-9ba3-e677a19a4e5a</b></p><a name=\"75e790c0-55dd-4486-9ba3-e677a19a4e5a\"> </a><a name=\"hc75e790c0-55dd-4486-9ba3-e677a19a4e5a\"> </a><a name=\"75e790c0-55dd-4486-9ba3-e677a19a4e5a-hi-IN\"> </a><p><b>identifier</b>: Registry of Hospitals in Network of Insurance (ROHINI) ID/4567878</p><p><b>type</b>: <span title=\"Codes:{http://terminology.hl7.org/CodeSystem/organization-type ins}\">Insurance Company</span></p><p><b>name</b>: XYZ Insurance Co. Ltd.</p><p><b>telecom</b>: <a href=\"tel:+9124326341234\">+91 243 2634 1234</a>, <a href=\"mailto:contact@xyz.org\">contact@xyz.org</a></p></div>"},"identifier":[{"type":{"coding":[{"system":"https://nrces.in/ndhm/fhir/r4/CodeSystem/ndhm-identifier-type-code","code":"ROHINI","display":"Registry of Hospitals in Network of Insurance (ROHINI) ID"}]},"system":"https://rohini.iib.gov.in/","value":"4567878"}],"type":[{"coding":[{"system":"http://terminology.hl7.org/CodeSystem/organization-type","code":"ins","display":"Insurance Company"}]}],"name":"XYZ Insurance Co. Ltd.","telecom":[{"system":"phone","value":"+91 243 2634 1234","use":"work"},{"system":"email","value":"contact@xyz.org","use":"work"}]}},{"fullUrl":"urn:uuid:36b41540-7389-4742-bfbd-89169e8b799d","resource":{"resourceType":"Organization","id":"36b41540-7389-4742-bfbd-89169e8b799d","meta":{"profile":["https://nrces.in/ndhm/fhir/r4/StructureDefinition/Organization"]},"text":{"status":"generated","div":"<div xmlns=\"http://www.w3.org/1999/xhtml\"><a name=\"Organization_36b41540-7389-4742-bfbd-89169e8b799d\"> </a><p class=\"res-header-id\"><b>Generated Narrative: Organization 36b41540-7389-4742-bfbd-89169e8b799d</b></p><a name=\"36b41540-7389-4742-bfbd-89169e8b799d\"> </a><a name=\"hc36b41540-7389-4742-bfbd-89169e8b799d\"> </a><a name=\"36b41540-7389-4742-bfbd-89169e8b799d-hi-IN\"> </a><p><b>identifier</b>: Provider number/45675454</p><p><b>type</b>: <span title=\"Codes:{http://terminology.hl7.org/CodeSystem/organization-type prov}\">Healthcare Provider</span></p><p><b>name</b>: XYZ Hospital Co. Ltd.</p><p><b>telecom</b>: <a href=\"tel:+9124326341278\">+91 243 2634 1278</a>, <a href=\"mailto:contact@xyz.org\">contact@xyz.org</a></p></div>"},"identifier":[{"type":{"coding":[{"system":"http://terminology.hl7.org/CodeSystem/v2-0203","code":"PRN","display":"Provider number"}]},"system":"https://facility.ndhm.gov.in","value":"45675454"}],"type":[{"coding":[{"system":"http://terminology.hl7.org/CodeSystem/organization-type","code":"prov","display":"Healthcare Provider"}]}],"name":"XYZ Hospital Co. Ltd.","telecom":[{"system":"phone","value":"+91 243 2634 1278","use":"work"},{"system":"email","value":"contact@xyz.org","use":"work"}]}}]}